ACCELEROMETER X (m/s²),ACCELEROMETER Y (m/s²),ACCELEROMETER Z (m/s²),GRAVITY X (m/s²),GRAVITY Y (m/s²),GRAVITY Z (m/s²),LINEAR ACCELERATION X (m/s²),LINEAR ACCELERATION Y (m/s²),LINEAR ACCELERATION Z (m/s²),GYROSCOPE X (rad/s),GYROSCOPE Y (rad/s),GYROSCOPE Z (rad/s),LIGHT (lux),MAGNETIC FIELD X (μT),MAGNETIC FIELD Y (μT),MAGNETIC FIELD Z (μT),ORIENTATION Z (azimuth °),ORIENTATION X (pitch °),ORIENTATION Y (roll °),LOCATION Latitude : ,LOCATION Longitude : ,LOCATION Altitude ( m),LOCATION Altitude-google ( m),LOCATION Speed ( Kmh),LOCATION Accuracy ( m),LOCATION ORIENTATION (°),Satellites in range,Time since start in ms ,YYYY-MO-DD HH-MI-SS_SSS
-0.118,1.1449,10.2405,-0.3007,1.3018,9.7152,0.1469,-0.1411,0.4605,-0.1457,-0.1335,0.1669,0.0,128.14,505.85,-29.27,346.03,-7.99,2.1,67.84592,20.221346,1681.43,NaN,0.0,10.374194,,26 / 35,8,2019-09-17 01:40:53:632
-0.0534,1.1018,10.1926,-0.2815,1.2861,9.7179,0.2306,-0.2057,0.43,-0.1207,-0.118,0.1552,0.0,128.29,505.7,-29.41,345.9,-7.63,1.77,67.84592,20.221346,1681.43,NaN,0.0,10.374194,,26 / 35,28,2019-09-17 01:40:53:652
-0.0438,1.006,10.0896,-0.2674,1.2754,9.7197,0.226,-0.2047,0.3837,-0.0547,-0.0504,0.1461,0.0,125.86,506.89,-30.35,345.9,-7.63,1.77,67.84592,20.221346,1681.43,NaN,0.0,10.374194,,26 / 35,48,2019-09-17 01:40:53:672
0.0735,0.9845,10.092,-0.254,1.2658,9.7213,0.3347,-0.2959,0.2783,-0.0099,-0.003,0.143,0.0,126.02,506.74,-29.75,346.13,-7.43,1.52,67.84592,20.221346,1681.43,NaN,0.0,10.374194,,26 / 35,67,2019-09-17 01:40:53:691
0.1453,0.9677,9.879,-0.2513,1.2636,9.7216,0.4215,-0.3258,0.1581,-0.0131,0.005,0.1062,0.0,126.79,505.69,-28.97,346.13,-7.43,1.52,67.84592,20.221346,1681.43,NaN,0.0,10.374194,,26 / 35,88,2019-09-17 01:40:53:712
0.1214,0.9965,9.958,-0.2459,1.2601,9.7223,0.3482,-0.2927,0.1793,2.0E-4,2.0E-4,0.0865,0.0,126.01,506.74,-30.19,346.13,-7.39,1.47,67.84592,20.221346,1681.43,NaN,0.0,10.374194,,26 / 35,107,2019-09-17 01:40:53:731
0.1286,0.9414,9.776,-0.2436,1.2599,9.7223,0.4381,-0.2973,-0.0219,0.0087,0.005,0.0769,0.0,126.93,506.6,-29.59,346.13,-7.39,1.47,67.84592,20.221346,1681.43,NaN,0.0,10.374194,,26 / 35,128,2019-09-17 01:40:53:752
0.131,0.9725,9.8215,-0.2427,1.2588,9.7225,0.4108,-0.2747,-0.0254,-0.0078,0.0162,0.0524,0.0,126.93,506.15,-29.28,345.99,-7.38,1.43,67.84592,20.221346,1681.43,NaN,0.0,10.374194,,26 / 35,149,2019-09-17 01:40:53:773
0.1286,1.0108,9.7832,-0.2418,1.2553,9.723,0.3691,-0.252,0.0209,-0.0078,0.0034,0.0354,0.0,126.47,506.44,-30.18,345.99,-7.38,1.43,67.84592,20.221346,1681.43,NaN,0.0,10.374194,,26 / 35,167,2019-09-17 01:40:53:791
0.119,1.0084,9.7784,-0.2405,1.2535,9.7232,0.3415,-0.2645,-0.0163,-0.0089,0.0029,0.0242,0.0,125.4,506.57,-30.78,346.24,-7.34,1.42,67.84592,20.221346,1681.43,NaN,0.0,10.374194,,26 / 35,187,2019-09-17 01:40:53:811
0.0352,1.0252,9.8263,-0.2399,1.2511,9.7236,0.2847,-0.2154,0.0445,-0.003,0.013,0.021,0.0,126.17,506.9,-29.31,346.24,-7.34,1.42,67.84592,20.221346,1681.43,NaN,0.0,10.374194,,26 / 35,208,2019-09-17 01:40:53:832
0.0711,1.0132,9.8574,-0.2393,1.2485,9.7239,0.32,-0.2535,0.0048,-0.0073,-0.004,0.0034,0.0,125.87,507.36,-29.62,346.13,-7.32,1.42,67.84592,20.221346,1681.43,NaN,0.0,10.374194,,26 / 35,228,2019-09-17 01:40:53:852
0.1214,1.0683,9.7473,-0.229,1.2417,9.725,0.336,-0.182,0.0094,-0.0115,-0.0285,-0.0142,0.0,125.87,505.82,-30.31,346.13,-7.32,1.42,67.84592,20.221346,1681.43,NaN,0.0,10.374194,,26 / 35,248,2019-09-17 01:40:53:872
0.0855,1.0731,9.6922,-0.2172,1.2358,9.7261,0.293,-0.1567,-0.1142,-0.0238,-0.0227,-0.0285,0.0,126.48,505.98,-29.72,346.09,-7.24,1.28,67.84592,20.221346,1681.43,NaN,0.0,10.374194,,26 / 35,267,2019-09-17 01:40:53:891
0.0184,1.1712,9.6084,-0.2028,1.2265,9.7275,0.2017,-0.0567,-0.1638,-0.0291,-0.02,-0.0269,0.0,126.61,507.35,-30.36,346.09,-7.24,1.28,67.84592,20.221346,1681.43,NaN,0.0,10.374194,,26 / 35,288,2019-09-17 01:40:53:912
-0.0749,1.1976,9.6252,-0.1971,1.2199,9.7285,0.1731,-0.0267,-0.2007,-0.0573,-0.0051,-0.0339,0.0,126.48,505.68,-29.71,346.09,-7.15,1.16,67.84592,20.221346,1681.43,NaN,0.0,10.374194,,26 / 35,307,2019-09-17 01:40:53:931
-0.1635,1.2095,9.709,-0.1947,1.2107,9.7297,0.0534,-0.0171,-0.0746,-0.0552,-0.0019,-0.0371,0.0,126.02,506.75,-29.46,346.09,-7.15,1.16,67.84592,20.221346,1681.43,NaN,0.0,10.374194,,26 / 35,327,2019-09-17 01:40:53:951
-0.3096,1.1114,9.8981,-0.1954,1.1896,9.7323,-0.1278,-0.0693,0.156,-0.0515,-0.0099,-0.0451,0.0,125.86,507.35,-30.36,346.11,-7.04,1.14,67.84592,20.221346,1681.43,NaN,0.0,10.374194,,26 / 35,347,2019-09-17 01:40:53:971
-0.4317,1.2191,9.7928,-0.199,1.1846,9.7328,-0.2007,0.0406,0.131,-0.0254,-0.0062,-0.0333,0.0,125.26,505.2,-30.44,346.11,-7.04,1.14,67.84592,20.221346,1681.43,NaN,0.0,10.374194,,26 / 35,368,2019-09-17 01:40:53:992
-0.4269,1.291,9.7209,-0.2044,1.1828,9.7329,-0.2288,0.0603,-0.0371,-0.0318,-0.0014,-0.0152,0.0,125.26,507.19,-30.21,346.23,-6.93,1.2,67.84592,20.221346,1681.43,NaN,0.0,10.374194,,26 / 35,388,2019-09-17 01:40:54:012
-0.2904,1.2287,9.867,-0.2075,1.1749,9.7338,-0.1766,0.1185,0.0464,-0.044,-0.0142,0.0055,0.0,126.62,508.13,-29.64,346.23,-6.93,1.2,67.84592,20.221346,1681.43,NaN,0.0,10.374194,,26 / 35,408,2019-09-17 01:40:54:032
-0.2904,1.2574,9.8287,-0.2067,1.1715,9.7342,-0.1104,0.1184,0.0649,-0.0371,-0.012,0.0055,0.0,125.42,506.13,-29.59,346.2,-6.86,1.22,67.84592,20.221346,1681.43,NaN,0.0,10.374194,,26 / 35,427,2019-09-17 01:40:54:051
-0.2904,1.2239,9.8598,-0.2092,1.1627,9.7352,-0.0935,0.0589,0.0858,-0.0291,0.0167,0.0173,0.0,125.69,506.71,-31.67,346.2,-6.86,1.22,67.84592,20.221346,1681.43,NaN,0.0,10.374194,,26 / 33,447,2019-09-17 01:40:54:071
-0.2545,1.1665,9.7975,-0.215,1.1599,9.7354,-0.0553,0.0052,0.0399,-0.0179,0.0497,0.0215,0.0,126.01,506.42,-30.92,346.11,-6.79,1.27,67.84592,20.22136,1684.32,NaN,0.0,10.374194,,26 / 33,468,2019-09-17 01:40:54:092
-0.2856,1.0994,9.934,-0.2225,1.1587,9.7354,-0.0357,0.0107,0.1949,0.0114,0.0492,0.0247,0.0,126.48,506.76,-29.01,346.11,-6.79,1.27,67.84592,20.22136,1684.32,NaN,0.0,10.374194,,26 / 33,488,2019-09-17 01:40:54:112
-0.2377,1.0731,9.9029,-0.2349,1.1593,9.7351,0.0068,-0.0398,0.0961,0.013,0.022,0.0162,0.0,125.87,506.6,-29.3,346.13,-6.79,1.35,67.84592,20.22136,1684.32,NaN,0.0,10.374194,,26 / 33,508,2019-09-17 01:40:54:132
-0.2353,1.1449,9.879,-0.2366,1.16,9.7349,-0.0166,-0.0096,0.0943,0.013,0.0029,0.0183,0.0,126.63,504.6,-30.27,346.13,-6.79,1.35,67.84592,20.22136,1684.32,NaN,0.0,10.374194,,26 / 33,527,2019-09-17 01:40:54:151
-0.1324,1.121,9.7473,-0.2361,1.1608,9.7348,0.0213,-0.0524,-0.0072,0.0023,2.0E-4,0.022,0.0,125.26,507.19,-30.21,346.24,-6.8,1.39,67.84592,20.22136,1684.32,NaN,0.0,10.374194,,26 / 33,547,2019-09-17 01:40:54:171
-0.1276,1.0803,9.7952,-0.23,1.1593,9.7352,0.1395,-0.0793,-0.0567,-0.0014,0.0039,0.022,0.0,124.66,506.58,-29.61,346.24,-6.8,1.39,67.84592,20.22136,1684.32,NaN,0.0,10.374194,,26 / 33,568,2019-09-17 01:40:54:192
-0.0989,1.0611,9.8119,-0.2268,1.1568,9.7355,0.1387,-0.0995,0.0114,0.0034,2.0E-4,0.0098,0.0,126.15,507.34,-30.8,346.14,-6.77,1.33,67.84592,20.22136,1684.32,NaN,0.0,10.374194,,26 / 33,588,2019-09-17 01:40:54:212
-0.1156,1.1066,9.7161,-0.2231,1.1555,9.7358,0.1361,-0.0898,-0.0213,0.0082,-3.0E-4,0.0077,0.0,126.01,507.96,-30.23,346.14,-6.77,1.33,67.84592,20.22136,1684.32,NaN,0.0,10.374194,,26 / 33,607,2019-09-17 01:40:54:231
-0.1228,1.121,9.6994,-0.22,1.1553,9.7359,0.0875,-0.0388,-0.114,0.0087,0.0162,0.0093,0.0,125.12,505.82,-29.58,346.21,-6.76,1.3,67.84592,20.22136,1684.32,NaN,0.0,10.374194,,26 / 33,627,2019-09-17 01:40:54:251
-0.1276,1.1305,9.6611,-0.2199,1.1554,9.7359,0.0873,-0.0075,-0.0856,-0.0067,0.0087,0.0071,0.0,126.79,506.77,-28.71,346.21,-6.76,1.3,67.84592,20.22136,1684.32,NaN,0.0,10.374194,,26 / 33,648,2019-09-17 01:40:54:272
-0.1444,1.1234,9.6826,-0.2144,1.15,9.7366,0.1033,-0.0099,-0.0588,-0.0227,-0.0051,7.0E-4,0.0,126.77,506.74,-30.19,346.21,-6.76,1.3,67.84592,20.22136,1684.32,NaN,0.0,10.374194,,26 / 33,668,2019-09-17 01:40:54:292
-0.1324,1.1425,9.8335,-0.2103,1.1457,9.7372,0.1411,-0.0367,0.0335,-0.0201,-0.0088,-0.004,0.0,125.4,508.41,-30.4,346.26,-6.73,1.26,67.84592,20.22136,1684.32,NaN,0.0,10.374194,,26 / 33,688,2019-09-17 01:40:54:312
-0.142,1.1329,9.8358,-0.208,1.1432,9.7376,0.0645,-0.0189,0.076,-0.0105,7.0E-4,-0.0131,0.0,126.93,506.14,-29.58,346.26,-6.73,1.26,67.84592,20.22136,1684.32,NaN,0.0,10.374194,,26 / 33,708,2019-09-17 01:40:54:332
-0.1946,1.1689,9.8598,-0.2072,1.1421,9.7377,0.0267,0.0265,0.031,-0.0222,-0.0184,-0.0088,0.0,126.01,506.73,-30.49,346.12,-6.69,1.22,67.84592,20.22136,1684.32,NaN,0.0,10.374194,,26 / 33,727,2019-09-17 01:40:54:351
-0.1611,1.1593,9.9628,-0.2021,1.1361,9.7385,0.0349,0.0044,0.1529,-0.0184,-0.019,-0.0094,0.0,125.72,507.51,-29.48,346.12,-6.69,1.22,67.84592,20.22136,1684.32,NaN,0.0,10.374194,,26 / 33,748,2019-09-17 01:40:54:372
-0.1875,1.1401,9.9053,-0.2003,1.1349,9.7387,0.0653,-0.014,0.1373,0.0066,0.0055,-0.0147,0.0,126.92,506.9,-30.05,346.02,-6.65,1.18,67.84592,20.22136,1684.32,NaN,0.0,10.374194,,26 / 33,768,2019-09-17 01:40:54:392
-0.221,1.1641,9.855,-0.2012,1.1368,9.7385,-0.012,0.0305,0.0377,0.0087,-0.0104,-0.0184,0.0,126.77,506.75,-29.75,346.02,-6.65,1.18,67.84592,20.22136,1684.32,NaN,0.0,10.374194,,26 / 33,787,2019-09-17 01:40:54:411
-0.2425,1.1976,9.843,-0.2003,1.1382,9.7383,-0.0137,0.0446,-0.0192,-0.0019,-0.0174,-0.0142,0.0,126.63,506.91,-29.31,346.01,-6.66,1.18,67.84592,20.22136,1684.32,NaN,0.0,10.374194,,26 / 33,808,2019-09-17 01:40:54:432
-0.1659,1.1114,9.8861,-0.1958,1.1394,9.7383,0.0263,-0.0062,0.0889,0.0039,-0.0046,-0.0104,0.0,126.01,507.2,-30.21,346.01,-6.66,1.18,67.84592,20.22136,1684.32,NaN,0.0,10.374194,,26 / 33,828,2019-09-17 01:40:54:452
-0.1563,1.1569,9.7928,-0.1949,1.1406,9.7381,0.0206,0.0165,0.0114,0.0119,-0.0046,-0.0174,0.0,127.22,507.2,-30.5,346.01,-6.67,1.15,67.84592,20.22136,1684.32,NaN,0.0,10.374194,,26 / 33,848,2019-09-17 01:40:54:472
-0.2545,1.1641,9.8215,-0.1936,1.1421,9.738,-0.0286,0.0126,0.0095,-0.0062,-0.0136,-0.0131,0.0,126.63,505.84,-29.28,346.01,-6.67,1.15,67.84592,20.22136,1684.32,NaN,0.0,10.374194,,26 / 33,868,2019-09-17 01:40:54:492
-0.2114,1.1856,9.8023,-0.1924,1.1426,9.738,-0.0214,0.0373,-0.0128,-0.0019,-0.0115,-0.011,0.0,127.21,507.5,-30.95,346.02,-6.69,1.13,67.84592,20.22136,1684.32,NaN,0.0,10.374194,,26 / 33,888,2019-09-17 01:40:54:512
-0.197,1.1712,9.7928,-0.1913,1.1424,9.738,0.0086,-0.0056,-0.0269,2.0E-4,-0.003,-0.0104,0.0,125.71,507.2,-29.77,346.02,-6.69,1.13,67.84592,20.22136,1684.32,NaN,0.0,10.374194,,26 / 33,907,2019-09-17 01:40:54:531
-0.1635,1.1617,9.8574,-0.1909,1.1427,9.738,0.0273,-0.0049,0.0718,0.0183,0.0087,-0.0168,0.0,125.69,508.24,-31.72,346.15,-6.69,1.12,67.84592,20.22136,1684.32,NaN,0.0,10.374194,,26 / 33,927,2019-09-17 01:40:54:551
-0.1803,1.1473,9.8167,-0.1929,1.1459,9.7376,-0.0113,-0.0081,-0.0092,0.013,0.0066,-0.0126,0.0,126.02,507.2,-29.77,346.15,-6.69,1.12,67.84592,20.22136,1684.32,NaN,0.0,10.374194,,26 / 33,948,2019-09-17 01:40:54:572
-0.2042,1.1305,9.7856,-0.1935,1.1466,9.7375,-0.0036,-0.0232,-0.0341,0.0034,-0.0035,-0.0174,0.0,126.78,505.99,-29.72,345.99,-6.71,1.14,67.84592,20.22136,1684.32,NaN,0.0,10.374194,,26 / 33,968,2019-09-17 01:40:54:592
-0.1898,1.0922,9.8574,-0.1933,1.1467,9.7375,-0.0133,-0.0151,0.0626,0.0087,0.005,-0.0174,0.0,126.91,507.35,-30.36,345.99,-6.71,1.14,67.84592,20.22136,1684.32,NaN,0.0,10.374194,,26 / 33,988,2019-09-17 01:40:54:612
-0.1875,1.1305,9.8167,-0.1941,1.1479,9.7373,0.0043,-0.0261,0.0516,0.0156,0.0066,-0.0216,0.0,125.41,508.12,-29.65,346.25,-6.72,1.14,67.84592,20.22136,1684.32,NaN,0.0,10.374194,,26 / 33,1008,2019-09-17 01:40:54:632
-0.2425,1.2048,9.8119,-0.1955,1.1499,9.737,-0.0358,0.0148,-0.0043,0.0066,0.0023,-0.0163,0.0,126.02,505.67,-30.45,346.25,-6.72,1.14,67.84592,20.22136,1684.32,NaN,0.0,10.374194,,26 / 33,1028,2019-09-17 01:40:54:652
-0.2066,1.176,9.7736,-0.1975,1.1539,9.7365,-0.0231,0.0301,-0.0334,0.0061,-0.0019,-0.0115,0.0,126.48,505.23,-29.4,346.06,-6.75,1.16,67.84592,20.22136,1684.32,NaN,0.0,10.374194,,26 / 33,1048,2019-09-17 01:40:54:672
-0.1707,1.1665,9.7353,-0.1963,1.1543,9.7365,0.0333,-0.0152,-0.0509,0.0039,-0.0094,-0.0136,0.0,126.93,505.83,-30.01,346.06,-6.75,1.16,67.84592,20.22136,1684.32,NaN,0.0,10.374194,,26 / 33,1067,2019-09-17 01:40:54:691
-0.1851,1.1569,9.7545,-0.1943,1.1537,9.7366,0.0037,-0.0257,-0.0804,-9.0E-4,-0.003,-0.012,0.0,127.39,505.85,-29.27,345.98,-6.76,1.15,67.84592,20.22136,1684.32,NaN,0.0,10.374194,,26 / 33,1087,2019-09-17 01:40:54:711
-0.197,1.0922,9.8574,-0.1943,1.152,9.7368,0.0617,-0.0407,-0.0416,-0.0078,0.0061,-0.0115,0.0,126.16,506.12,-30.76,345.98,-6.76,1.15,67.84592,20.22136,1684.32,NaN,0.0,10.374194,,26 / 33,1108,2019-09-17 01:40:54:732
-0.1516,1.1138,9.8694,-0.1933,1.1487,9.7372,-0.005,-0.05,0.0694,-0.0025,-0.0062,-0.0158,0.0,128.88,506.91,-30.33,345.8,-6.74,1.14,67.84592,20.22136,1684.32,NaN,0.0,10.374194,,26 / 33,1128,2019-09-17 01:40:54:752
-0.2282,1.1425,9.7497,-0.1932,1.1476,9.7374,-0.0374,-0.0202,-0.0241,0.0018,-0.003,-0.0206,0.0,126.17,508.13,-29.35,345.8,-6.74,1.14,67.84592,20.22136,1684.32,NaN,0.0,10.374194,,26 / 33,1148,2019-09-17 01:40:54:772
-0.1922,1.188,9.764,-0.1936,1.1476,9.7373,-0.0262,0.0254,-0.0083,-0.003,-9.0E-4,-0.0168,0.0,128.0,505.7,-28.97,345.87,-6.72,1.14,67.84592,20.22136,1684.32,NaN,0.0,10.374194,,26 / 33,1167,2019-09-17 01:40:54:791
-0.1875,1.1449,9.8023,-0.1944,1.1479,9.7373,0.0296,0.0191,-0.0031,-0.0025,0.0066,-0.0131,0.0,126.62,506.9,-29.61,345.87,-6.72,1.14,67.84592,20.22136,1684.32,NaN,0.0,10.374194,,26 / 33,1188,2019-09-17 01:40:54:812
-0.1898,1.1545,9.8215,-0.1961,1.1476,9.7373,-0.0082,-0.0188,-0.0074,-0.0089,0.005,-0.0131,0.0,126.01,506.43,-30.18,346.09,-6.72,1.15,67.84592,20.22136,1684.32,NaN,0.0,10.374194,,26 / 33,1209,2019-09-17 01:40:54:833
-0.2521,1.1665,9.8981,-0.1973,1.1449,9.7376,-0.0393,-0.0163,0.0121,-0.0035,-0.003,-0.0168,0.0,127.38,506.14,-30.02,346.09,-6.72,1.15,67.84592,20.22136,1684.32,NaN,0.0,10.374194,,26 / 33,1228,2019-09-17 01:40:54:852
-0.2521,1.1545,9.8478,-0.1981,1.1447,9.7376,-0.0516,0.0125,0.067,0.0023,-0.0014,-0.0094,0.0,126.77,507.21,-29.47,346.01,-6.7,1.17,67.84592,20.22136,1684.32,NaN,0.0,10.374194,,26 / 33,1248,2019-09-17 01:40:54:872
-0.2665,1.2646,9.7161,-0.2006,1.1473,9.7372,-0.0683,0.0615,-0.1206,-0.0046,-0.0062,-0.0062,0.0,126.93,505.84,-29.27,346.01,-6.7,1.17,67.84592,20.22136,1684.32,NaN,0.0,10.374194,,26 / 33,1267,2019-09-17 01:40:54:891
-0.2234,1.1808,9.7904,-0.1994,1.1473,9.7373,0.0023,0.0425,-0.0145,-0.0152,-0.003,0.0029,0.0,126.47,505.98,-30.17,346.09,-6.72,1.17,67.84592,20.22136,1684.32,NaN,0.0,10.374194,,26 / 33,1288,2019-09-17 01:40:54:912
-0.1611,1.1928,9.8287,-0.199,1.1464,9.7374,0.0342,0.0268,1.0E-4,-0.0115,0.0109,0.0018,0.0,126.77,506.43,-30.47,346.09,-6.72,1.17,67.84592,20.22136,1684.32,NaN,0.0,10.374194,,26 / 33,1308,2019-09-17 01:40:54:932
-0.1611,1.1401,9.9005,-0.1995,1.1434,9.7377,0.0456,-0.0127,0.1224,-0.0067,0.0061,-9.0E-4,0.0,126.46,505.96,-31.2,346.1,-6.71,1.17,67.84592,20.22136,1684.32,NaN,0.0,10.374194,,26 / 33,1328,2019-09-17 01:40:54:952
-0.2042,1.1042,9.9604,-0.1982,1.1418,9.7379,0.0252,-0.0258,0.1296,7.0E-4,-0.0104,-0.0099,0.0,127.96,507.19,-31.23,346.1,-6.71,1.17,67.84592,20.22136,1684.32,NaN,0.0,10.374194,,26 / 33,1348,2019-09-17 01:40:54:972
-0.197,1.0946,9.8981,-0.1967,1.1414,9.738,0.007,-0.0163,0.1357,0.0114,-0.004,-0.0147,0.0,126.9,507.65,-31.1,346.05,-6.69,1.17,67.84592,20.22136,1684.32,NaN,0.0,10.374194,,26 / 33,1367,2019-09-17 01:40:54:991
-0.2329,1.1473,9.8933,-0.198,1.1426,9.7379,-0.0348,-0.0165,0.069,0.0146,0.0087,-0.0099,0.0,126.16,506.58,-30.33,346.05,-6.69,1.17,67.84592,20.22136,1684.32,NaN,0.0,10.374194,,26 / 33,1388,2019-09-17 01:40:55:012
-0.209,1.1832,9.8023,-0.2031,1.1498,9.7369,-0.0032,0.0249,-0.0088,0.0348,0.0125,-0.0168,0.0,126.92,505.36,-30.73,345.97,-6.71,1.18,67.84592,20.22136,1684.32,NaN,0.0,10.374194,,26 / 33,1408,2019-09-17 01:40:55:032
-0.2617,1.1784,9.7473,-0.2054,1.1542,9.7363,-0.0668,0.0099,-0.0456,0.0236,0.0034,-0.0158,0.0,125.87,506.14,-29.58,345.97,-6.71,1.18,67.84592,20.22136,1684.32,NaN,0.0,10.374194,,26 / 33,1427,2019-09-17 01:40:55:051
-0.2784,1.2072,9.8191,-0.2087,1.1595,9.7356,-0.085,0.0166,-0.0427,0.0263,0.0114,-0.004,0.0,126.16,506.58,-30.33,346.12,-6.78,1.22,67.84592,20.22136,1684.32,NaN,0.0,10.374194,,26 / 33,1448,2019-09-17 01:40:55:072
-0.2377,1.1497,9.7904,-0.2126,1.1634,9.7351,-0.0399,-0.0162,-0.0119,0.029,0.0268,-0.0014,0.0,126.02,505.98,-30.17,346.12,-6.78,1.22,67.84592,20.221367,1686.48,NaN,0.0,10.374194,,26 / 33,1467,2019-09-17 01:40:55:091
-0.2713,1.1401,9.7832,-0.219,1.1682,9.7344,-0.0711,-0.0328,-0.0243,0.0236,0.0034,-0.0019,0.0,125.87,505.82,-30.31,346.1,-6.84,1.29,67.84592,20.221367,1686.48,NaN,0.0,10.374194,,26 / 33,1488,2019-09-17 01:40:55:112
-0.2401,1.2191,9.7161,-0.2194,1.1741,9.7336,-0.0112,-0.0225,-0.0383,0.0141,-0.0094,-0.0072,0.0,126.91,506.58,-31.07,346.1,-6.84,1.29,67.84592,20.221367,1686.48,NaN,0.0,10.374194,,26 / 33,1508,2019-09-17 01:40:55:132
-0.2114,1.2359,9.7066,-0.2194,1.1778,9.7332,-0.0013,0.0584,-0.0419,0.0183,0.0023,0.005,0.0,126.91,507.66,-30.07,346.05,-6.88,1.29,67.84592,20.221367,1686.48,NaN,0.0,10.374194,,26 / 33,1528,2019-09-17 01:40:55:152
-0.1659,1.2287,9.7736,-0.2196,1.1808,9.7328,0.0289,0.0291,0.0045,0.0167,0.0082,0.0039,0.0,127.37,506.6,-30.03,346.05,-6.88,1.29,67.84592,20.221367,1686.48,NaN,0.0,10.374194,,26 / 33,1547,2019-09-17 01:40:55:171
-0.1396,1.2095,9.7545,-0.2166,1.1862,9.7322,0.0785,0.0224,0.0108,0.0162,2.0E-4,-0.0051,0.0,126.46,506.43,-30.48,346.1,-6.93,1.29,67.84592,20.221367,1686.48,NaN,0.0,10.374194,,26 / 33,1568,2019-09-17 01:40:55:192
-0.1946,1.1976,9.7904,-0.2158,1.1878,9.7321,0.0825,0.0089,0.003,0.0146,0.0061,-0.0046,0.0,126.93,507.38,-28.88,346.1,-6.93,1.29,67.84592,20.221367,1686.48,NaN,0.0,10.374194,,26 / 33,1587,2019-09-17 01:40:55:211
-0.2545,1.2191,9.7832,-0.2183,1.1926,9.7314,-0.0108,0.0184,-0.0326,0.0188,0.0151,-0.0056,0.0,126.78,505.99,-29.43,345.99,-6.97,1.27,67.84592,20.221367,1686.48,NaN,0.0,10.374194,,26 / 33,1608,2019-09-17 01:40:55:232
-0.2425,1.2503,9.7784,-0.2207,1.1959,9.731,-0.0323,0.0367,-0.0174,0.0135,0.0045,-3.0E-4,0.0,127.22,506.75,-30.19,345.99,-6.97,1.27,67.84592,20.221367,1686.48,NaN,0.0,10.374194,,26 / 33,1628,2019-09-17 01:40:55:252
-0.1827,1.2287,9.7401,-0.2201,1.1989,9.7306,0.0293,0.0183,-0.0601,0.0061,-0.003,7.0E-4,0.0,126.92,507.36,-29.62,346.02,-7.01,1.3,67.84592,20.221367,1686.48,NaN,0.0,10.374194,,26 / 33,1647,2019-09-17 01:40:55:271
-0.1468,1.2335,9.7856,-0.2191,1.1999,9.7305,0.0439,0.0222,0.0014,0.0034,0.0045,0.0023,0.0,126.62,506.13,-30.02,346.02,-7.01,1.3,67.84592,20.221367,1686.48,NaN,0.0,10.374194,,26 / 33,1667,2019-09-17 01:40:55:291
-0.142,1.188,9.7975,-0.2188,1.201,9.7304,0.0339,0.0259,0.001,0.0055,-9.0E-4,7.0E-4,0.0,128.29,507.23,-29.01,345.91,-7.03,1.29,67.84592,20.221367,1686.48,NaN,0.0,10.374194,,26 / 33,1688,2019-09-17 01:40:55:312
-0.1587,1.2048,9.7856,-0.2167,1.2015,9.7304,0.0647,-0.0273,-0.0098,7.0E-4,-0.0094,-0.0056,0.0,127.97,506.44,-30.47,345.91,-7.03,1.29,67.84592,20.221367,1686.48,NaN,0.0,10.374194,,26 / 33,1708,2019-09-17 01:40:55:332
-0.2258,1.2095,9.8574,-0.215,1.2016,9.7304,0.0206,0.0096,-5.0E-4,0.0029,-0.0126,-0.0062,0.0,126.47,506.75,-29.75,346.12,-7.04,1.27,67.84592,20.221367,1686.48,NaN,0.0,10.374194,,26 / 33,1727,2019-09-17 01:40:55:351
-0.2066,1.1808,9.8478,-0.2125,1.2014,9.7305,0.0073,-0.0178,0.043,0.0034,-0.0131,-0.0067,0.0,126.62,506.9,-29.61,346.12,-7.04,1.27,67.84592,20.221367,1686.48,NaN,0.0,10.374194,,26 / 33,1748,2019-09-17 01:40:55:372
-0.197,1.1641,9.8526,-0.2085,1.2028,9.7304,0.0022,-0.0411,0.0609,0.0167,-0.0062,-0.0104,0.0,128.43,506.6,-30.32,345.91,-7.04,1.23,67.84592,20.221367,1686.48,NaN,0.0,10.374194,,26 / 33,1768,2019-09-17 01:40:55:392
-0.197,1.1856,9.776,-0.2078,1.2051,9.7301,0.011,-0.0075,-0.0361,0.0151,-0.0094,-0.0147,0.0,126.79,505.23,-29.4,345.91,-7.04,1.23,67.84592,20.221367,1686.48,NaN,0.0,10.374194,,26 / 33,1787,2019-09-17 01:40:55:411
-0.1922,1.2311,9.7305,-0.2044,1.2088,9.7297,0.0315,0.0286,-0.0983,0.0071,-0.0078,-0.0163,0.0,126.91,505.81,-31.49,345.99,-7.07,1.21,67.84592,20.221367,1686.48,NaN,0.0,10.374194,,26 / 33,1808,2019-09-17 01:40:55:432
-0.2832,1.2287,9.7377,-0.2055,1.2103,9.7295,-0.0573,0.0274,-0.0393,-0.0019,0.0045,-0.0115,0.0,127.22,507.21,-29.76,345.99,-7.07,1.21,67.84592,20.221367,1686.48,NaN,0.0,10.374194,,26 / 33,1830,2019-09-17 01:40:55:454
-0.2521,1.2359,9.7066,-0.208,1.2107,9.7294,-0.0476,0.0093,-0.0374,-0.0025,0.0045,-0.0067,0.0,127.98,505.98,-30.45,345.88,-7.09,1.21,67.84592,20.221367,1686.48,NaN,0.0,10.374194,,26 / 33,1848,2019-09-17 01:40:55:472
-0.3,1.2239,9.776,-0.2099,1.2102,9.7294,-0.0278,0.0015,-0.0192,-0.0099,0.0023,-0.0046,0.0,127.38,506.14,-30.02,345.88,-7.09,1.21,67.84592,20.221367,1686.48,NaN,0.0,10.374194,,26 / 33,1868,2019-09-17 01:40:55:492
-0.2976,1.2335,9.843,-0.212,1.2093,9.7295,-0.0592,0.0287,0.0331,-0.0105,0.0023,-3.0E-4,0.0,126.62,505.82,-30.75,345.99,-7.08,1.25,67.84592,20.221367,1686.48,NaN,0.0,10.374194,,26 / 33,1887,2019-09-17 01:40:55:511
-0.1946,1.1832,9.8502,-0.2125,1.2068,9.7298,-0.0095,-0.0109,0.0587,-0.0014,-0.0072,7.0E-4,0.0,126.79,506.0,-28.98,345.99,-7.08,1.25,67.84592,20.221367,1686.48,NaN,0.0,10.374194,,26 / 33,1907,2019-09-17 01:40:55:531
-0.1659,1.1856,9.8143,-0.209,1.2058,9.73,0.0564,-0.0174,-0.0036,0.0013,-0.0083,-0.0088,0.0,126.77,505.98,-30.17,345.99,-7.06,1.24,67.84592,20.221367,1686.48,NaN,0.0,10.374194,,26 / 33,1929,2019-09-17 01:40:55:553
-0.1156,1.2,9.8191,-0.2071,1.2054,9.7301,0.0545,-0.0171,0.034,0.0018,-0.0062,-0.0115,0.0,128.27,506.74,-30.92,345.99,-7.06,1.24,67.84592,20.221367,1686.48,NaN,0.0,10.374194,,26 / 33,1948,2019-09-17 01:40:55:572
-0.1731,1.1641,9.8502,-0.2058,1.2053,9.7301,0.0808,-0.011,0.03,0.0045,0.005,-0.011,0.0,126.77,507.21,-29.76,346.01,-7.06,1.21,67.84592,20.221367,1686.48,NaN,0.0,10.374194,,26 / 33,1968,2019-09-17 01:40:55:592
-0.1539,1.1832,9.9029,-0.2062,1.2047,9.7302,0.0022,-0.031,0.0909,0.0098,0.0135,-0.011,0.0,126.63,505.83,-29.57,346.01,-7.06,1.21,67.84592,20.221367,1686.48,NaN,0.0,10.374194,,26 / 33,1987,2019-09-17 01:40:55:611
-0.2042,1.1689,9.8095,-0.2079,1.2065,9.7299,0.0231,-0.0258,0.0334,0.0141,0.0061,-0.0099,0.0,127.51,507.51,-30.51,345.94,-7.07,1.22,67.84592,20.221367,1686.48,NaN,0.0,10.374194,,26 / 33,2008,2019-09-17 01:40:55:632
-0.1803,1.1808,9.7281,-0.2084,1.2081,9.7297,0.0129,-0.0167,-0.0087,2.0E-4,-0.0179,-0.0152,0.0,126.92,506.14,-30.02,345.94,-7.07,1.22,67.84592,20.221367,1686.48,NaN,0.0,10.374194,,26 / 33,2027,2019-09-17 01:40:55:651
-0.1659,1.2024,9.7233,-0.2029,1.2091,9.7297,0.0504,0.0054,-0.0472,0.0013,-0.0056,-0.0131,0.0,128.29,505.7,-29.41,345.87,-7.08,1.21,67.84592,20.221367,1686.48,NaN,0.0,10.374194,,26 / 33,2047,2019-09-17 01:40:55:671
-0.1611,1.2215,9.8263,-0.2018,1.2089,9.7298,0.0552,-0.0435,0.0388,0.0119,0.0077,-0.0158,0.0,126.94,505.38,-29.26,345.87,-7.08,1.21,67.84592,20.221367,1686.48,NaN,0.0,10.374194,,26 / 33,2068,2019-09-17 01:40:55:692
-0.2497,1.1904,9.8263,-0.2024,1.2092,9.7297,0.0175,-0.0558,0.0298,0.0151,-3.0E-4,-0.0158,0.0,126.17,506.14,-29.58,346.09,-7.08,1.19,67.84592,20.221367,1686.48,NaN,0.0,10.374194,,26 / 33,2088,2019-09-17 01:40:55:712
-0.2593,1.1497,9.9173,-0.2034,1.2093,9.7297,-0.0425,-0.0465,0.111,0.0199,0.0029,-0.0147,0.0,126.02,505.98,-30.17,346.09,-7.08,1.19,67.84592,20.221367,1686.48,NaN,0.0,10.374194,,26 / 33,2108,2019-09-17 01:40:55:732
-0.2258,1.1928,9.8957,-0.2046,1.2139,9.7291,-0.0184,-0.0278,0.0849,0.0385,-0.004,-0.0184,0.0,126.49,504.92,-29.39,346.06,-7.09,1.2,67.84592,20.221367,1686.48,NaN,0.0,10.374194,,26 / 33,2128,2019-09-17 01:40:55:752
-0.1516,1.2526,9.7113,-0.2021,1.2181,9.7286,0.0413,0.0183,-0.1125,0.0172,-0.0206,-0.019,0.0,126.01,507.51,-29.77,346.06,-7.09,1.2,67.84592,20.221367,1686.48,NaN,0.0,10.374194,,26 / 33,2148,2019-09-17 01:40:55:772
-0.1563,1.2862,9.7185,-0.1982,1.2213,9.7283,0.0373,0.0322,-0.0954,0.0103,-0.0158,-0.0158,0.0,126.63,506.14,-29.58,345.98,-7.15,1.17,67.84592,20.221367,1686.48,NaN,0.0,10.374194,,26 / 33,2167,2019-09-17 01:40:55:791
-0.1707,1.2766,9.6946,-0.1947,1.2266,9.7277,0.0098,0.037,-0.0875,0.0023,0.0071,-0.0131,0.0,127.51,506.74,-30.92,345.98,-7.15,1.17,67.84592,20.221367,1686.48,NaN,0.0,10.374194,,26 / 33,2188,2019-09-17 01:40:55:812
-0.1851,1.2407,9.7545,-0.1956,1.2277,9.7275,-1.0E-4,0.0024,-0.0058,0.0087,0.0082,-0.0152,0.0,127.68,505.07,-30.28,345.85,-7.19,1.15,67.84592,20.221367,1686.48,NaN,0.0,10.374194,,26 / 33,2208,2019-09-17 01:40:55:832
-0.1946,1.2119,9.7904,-0.197,1.2285,9.7274,-0.043,-0.0475,-0.0435,-0.0025,-0.0056,-0.0179,0.0,127.54,506.0,-28.98,345.85,-7.19,1.15,67.84592,20.221367,1686.48,NaN,0.0,10.374194,,26 / 33,2228,2019-09-17 01:40:55:852
-0.2593,1.2215,9.8047,-0.1981,1.2266,9.7276,-0.0455,-0.0562,0.0357,-9.0E-4,-0.0072,-0.0174,0.0,127.55,505.7,-28.67,345.87,-7.2,1.16,67.84592,20.221367,1686.48,NaN,0.0,10.374194,,26 / 33,2248,2019-09-17 01:40:55:872
-0.2306,1.1665,9.855,-0.1982,1.2248,9.7278,-0.0083,-0.0288,0.0562,0.0082,-0.0062,-0.02,0.0,126.63,506.92,-28.87,345.87,-7.2,1.16,67.84592,20.221367,1686.48,NaN,0.0,10.374194,,26 / 33,2267,2019-09-17 01:40:55:891
-0.2306,1.2239,9.6946,-0.1986,1.2251,9.7278,-0.0489,0.0077,-0.0705,0.013,-0.0019,-0.019,0.0,126.79,505.69,-28.97,345.98,-7.18,1.17,67.84592,20.221367,1686.48,NaN,0.0,10.374194,,26 / 33,2288,2019-09-17 01:40:55:912
-0.2258,1.2479,9.6347,-0.2001,1.2267,9.7276,-0.0231,0.0093,-0.1485,0.0029,0.0066,-0.0142,0.0,126.63,506.14,-29.28,345.98,-7.18,1.17,67.84592,20.221367,1686.48,NaN,0.0,10.374194,,26 / 33,2308,2019-09-17 01:40:55:932
-0.209,1.2287,9.7353,-0.2026,1.2268,9.7275,-0.0264,-0.0228,-0.0509,-0.0137,-0.0035,-0.0083,0.0,127.68,506.6,-30.03,345.9,-7.19,1.19,67.84592,20.221367,1686.48,NaN,0.0,10.374194,,26 / 33,2328,2019-09-17 01:40:55:952
-0.221,1.1904,9.8047,-0.2032,1.2249,9.7277,-0.0381,-0.0047,0.0054,-0.003,-0.0051,-0.0126,0.0,126.63,506.14,-29.28,345.9,-7.19,1.19,67.84592,20.221367,1686.48,NaN,0.0,10.374194,,26 / 33,2348,2019-09-17 01:40:55:972
-0.2114,1.2694,9.7353,-0.2036,1.2232,9.7279,-0.015,0.051,-0.0549,-0.0078,7.0E-4,-0.0062,0.0,126.93,504.61,-30.27,345.96,-7.16,1.2,67.84592,20.221367,1686.48,NaN,0.0,10.374194,,26 / 33,2368,2019-09-17 01:40:55:992
-0.1779,1.2957,9.7353,-0.2034,1.2222,9.7281,0.0243,-0.022,-0.0484,-0.0115,0.0013,-0.0035,0.0,126.64,504.61,-29.53,345.96,-7.16,1.2,67.84592,20.221367,1686.48,NaN,0.0,10.374194,,26 / 33,2388,2019-09-17 01:40:56:012
-0.1492,1.1808,9.7712,-0.1995,1.2182,9.7286,0.0395,0.0419,0.0089,-0.0216,-0.0147,-0.0056,0.0,126.78,506.45,-29.44,345.96,-7.16,1.2,67.84592,20.221367,1686.48,NaN,0.0,10.374194,,26 / 33,2408,2019-09-17 01:40:56:032
-0.13,1.2311,9.843,-0.1969,1.2158,9.729,0.0932,0.0023,0.0135,-0.0131,-9.0E-4,-0.003,0.0,126.64,505.38,-29.26,345.95,-7.14,1.17,67.84592,20.221367,1686.48,NaN,0.0,10.374194,,26 / 33,2428,2019-09-17 01:40:56:052
-0.0965,1.2,9.867,-0.1959,1.2139,9.7293,0.0372,-0.0106,0.0579,-9.0E-4,0.0098,-0.0083,0.0,126.92,506.13,-30.32,345.95,-7.14,1.17,67.845924,20.221369,1687.1,NaN,0.0,10.374194,,27 / 34,2448,2019-09-17 01:40:56:072
-0.1396,1.2,9.8478,-0.1963,1.2135,9.7293,0.0341,-0.0222,0.077,0.0034,0.0045,-0.0158,0.0,126.91,507.66,-30.07,346.03,-7.11,1.15,67.845924,20.221369,1687.1,NaN,0.0,10.374194,,27 / 34,2467,2019-09-17 01:40:56:091
-0.1851,1.1928,9.8526,-0.1956,1.2127,9.7294,0.0106,-0.0025,0.0589,-0.0099,-0.0099,-0.0238,0.0,126.78,506.45,-29.44,346.03,-7.11,1.15,67.845924,20.221369,1687.1,NaN,0.0,10.374194,,27 / 34,2488,2019-09-17 01:40:56:112
-0.197,1.2455,9.8454,-0.195,1.2126,9.7294,-0.0163,0.0153,0.0587,0.0013,-0.0035,-0.0184,0.0,126.92,506.13,-30.32,345.98,-7.1,1.15,67.845924,20.221369,1687.1,NaN,0.0,10.374194,,27 / 34,2508,2019-09-17 01:40:56:132
-0.2377,1.2862,9.7569,-0.1969,1.2149,9.7291,-0.0312,0.087,0.0337,0.0098,-0.0014,-0.0115,0.0,127.23,506.75,-29.74,345.98,-7.1,1.15,67.845924,20.221369,1687.1,NaN,0.0,10.374194,,27 / 34,2528,2019-09-17 01:40:56:152
-0.2162,1.2646,9.7832,-0.1982,1.217,9.7288,-0.0705,0.0682,5.0E-4,0.0023,-0.0078,-0.0078,0.0,128.13,506.14,-30.01,345.88,-7.13,1.17,67.845924,20.221369,1687.1,NaN,0.0,10.374194,,27 / 34,2547,2019-09-17 01:40:56:171
-0.2138,1.2431,9.8358,-0.1973,1.2179,9.7287,-0.0474,0.0061,0.0368,0.0018,-0.0115,-0.0094,0.0,126.18,505.37,-29.56,345.88,-7.13,1.17,67.845924,20.221369,1687.1,NaN,0.0,10.374194,,27 / 34,2568,2019-09-17 01:40:56:192
-0.2234,1.2239,9.7569,-0.1965,1.2186,9.7287,-0.0219,-0.0044,0.0359,0.0077,-0.0035,-0.0088,0.0,128.14,505.85,-29.27,345.87,-7.14,1.16,67.845924,20.221369,1687.1,NaN,0.0,10.374194,,27 / 34,2588,2019-09-17 01:40:56:212
-0.2306,1.2718,9.7952,-0.1968,1.2215,9.7283,-0.0073,0.0205,-0.0649,0.0114,0.0018,-0.0104,0.0,126.76,505.97,-30.9,345.87,-7.14,1.16,67.845924,20.221369,1687.1,NaN,0.0,10.374194,,27 / 34,2608,2019-09-17 01:40:56:232
-0.2162,1.2622,9.7569,-0.1979,1.2222,9.7282,-0.0069,0.0374,-0.0618,7.0E-4,0.0055,-0.003,0.0,128.27,506.44,-30.91,345.88,-7.16,1.17,67.845924,20.221369,1687.1,NaN,0.0,10.374194,,27 / 34,2628,2019-09-17 01:40:56:252
-0.1803,1.2359,9.8071,-0.1984,1.2224,9.7281,0.0092,-0.032,0.0153,-0.0051,-0.0078,-0.0142,0.0,128.29,505.23,-30.13,345.88,-7.16,1.17,67.845924,20.221369,1687.1,NaN,0.0,10.374194,,27 / 34,2647,2019-09-17 01:40:56:271
-0.2138,1.2359,9.8478,-0.1969,1.2217,9.7283,0.0219,0.0098,0.0622,-0.0073,-0.0078,-0.0104,0.0,127.54,506.46,-28.99,345.87,-7.16,1.17,67.845924,20.221369,1687.1,NaN,0.0,10.374194,,27 / 34,2668,2019-09-17 01:40:56:292
-0.209,1.2766,9.788,-0.1957,1.2216,9.7283,-0.0145,0.0391,-0.0119,0.0013,-0.0056,-0.0099,0.0,127.53,505.99,-30.16,345.87,-7.16,1.17,67.845924,20.221369,1687.1,NaN,0.0,10.374194,,27 / 34,2688,2019-09-17 01:40:56:312
-0.1922,1.2072,9.8311,-0.1941,1.2226,9.7282,-0.0246,0.0311,-0.0068,-0.0067,-0.011,7.0E-4,0.0,128.91,505.1,-28.79,345.74,-7.16,1.15,67.845924,20.221369,1687.1,NaN,0.0,10.374194,,27 / 34,2708,2019-09-17 01:40:56:332
-0.2042,1.2263,9.8574,-0.1924,1.2222,9.7283,0.0047,-0.0128,0.0271,-0.0019,-0.0158,-0.003,0.0,126.77,506.44,-30.18,345.74,-7.16,1.15,67.845924,20.221369,1687.1,NaN,0.0,10.374194,,27 / 34,2728,2019-09-17 01:40:56:352
-0.1851,1.2407,9.7712,-0.188,1.2219,9.7284,0.033,-0.0258,0.0074,0.0082,-0.0104,-0.0078,0.0,127.99,506.0,-29.42,345.87,-7.16,1.12,67.845924,20.221369,1687.1,NaN,0.0,10.374194,,27 / 34,2748,2019-09-17 01:40:56:372
-0.1898,1.2215,9.7569,-0.1851,1.2224,9.7284,0.0264,-0.0106,-0.0349,-0.0014,-0.0174,-0.0099,0.0,127.24,506.0,-28.98,345.87,-7.16,1.12,67.845924,20.221369,1687.1,NaN,0.0,10.374194,,27 / 34,2767,2019-09-17 01:40:56:391
-0.1563,1.2167,9.855,-0.1809,1.2215,9.7286,0.0247,0.0047,0.0333,7.0E-4,-0.0232,-0.0168,0.0,128.14,506.92,-29.3,345.89,-7.16,1.09,67.845924,20.221369,1687.1,NaN,0.0,10.374194,,27 / 34,2788,2019-09-17 01:40:56:412
-0.2042,1.2766,9.7281,-0.1788,1.2215,9.7286,-0.0074,-0.0193,-0.0021,0.0061,-0.0115,-0.0152,0.0,126.62,507.36,-29.62,345.89,-7.16,1.09,67.845924,20.221369,1687.1,NaN,0.0,10.374194,,27 / 34,2808,2019-09-17 01:40:56:432
-0.2186,1.2814,9.7449,-0.1758,1.2233,9.7285,-0.0248,-0.0365,-0.0277,0.0013,-0.0131,-0.0035,0.0,128.29,506.46,-29.73,345.87,-7.16,1.04,67.845924,20.221369,1687.1,NaN,0.0,10.374194,,27 / 34,2828,2019-09-17 01:40:56:452
-0.1468,1.1928,9.764,-0.1722,1.2223,9.7287,0.0075,-0.0162,-0.0473,-0.011,-0.0264,-0.0088,0.0,128.73,507.22,-30.19,345.87,-7.16,1.04,67.845924,20.221369,1687.1,NaN,0.0,10.374194,,27 / 34,2847,2019-09-17 01:40:56:471
-0.1731,1.2048,9.7808,-0.1677,1.2201,9.729,0.0232,-0.0427,-0.0314,-0.0067,-0.0248,-0.0083,0.0,126.17,507.36,-29.33,346.1,-7.15,0.99,67.845924,20.221369,1687.1,NaN,0.0,10.374194,,27 / 34,2867,2019-09-17 01:40:56:491
-0.1228,1.1952,9.7784,-0.1601,1.2168,9.7295,0.0599,-0.0235,-0.0287,-0.0099,-0.0184,-0.0099,0.0,127.23,506.76,-29.45,346.1,-7.15,0.99,67.845924,20.221369,1687.1,NaN,0.0,10.374194,,27 / 34,2888,2019-09-17 01:40:56:512
-0.0989,1.2191,9.7808,-0.1563,1.2155,9.7298,0.0656,-0.0018,-0.0023,-0.0105,-0.0195,-0.0168,0.0,126.48,506.45,-29.0,346.07,-7.12,0.92,67.845924,20.221369,1687.1,NaN,0.0,10.374194,,27 / 34,2908,2019-09-17 01:40:56:532
-0.1252,1.2287,9.8311,-0.1533,1.2143,9.73,0.0243,0.0208,0.0196,-0.0073,-0.0115,-0.0152,0.0,126.78,506.46,-29.0,346.07,-7.12,0.92,67.845924,20.221369,1687.1,NaN,0.0,10.374194,,27 / 34,2927,2019-09-17 01:40:56:551
-0.1946,1.2024,9.8526,-0.1502,1.2133,9.7301,-0.047,-0.0276,0.0618,-0.0051,-0.0285,-0.0163,0.0,128.74,504.93,-30.12,345.72,-7.11,0.9,67.845924,20.221369,1687.1,NaN,0.0,10.374194,,27 / 34,2948,2019-09-17 01:40:56:572
-0.1875,1.2167,9.8191,-0.1467,1.2124,9.7303,-0.0565,0.0138,0.0277,0.0039,-0.0302,-0.0131,0.0,126.17,506.59,-29.6,345.72,-7.11,0.9,67.845924,20.221369,1687.1,NaN,0.0,10.374194,,27 / 34,2968,2019-09-17 01:40:56:592
-0.1659,1.2503,9.7305,-0.1434,1.2126,9.7303,-0.024,0.0066,-0.0716,7.0E-4,-0.0269,-0.0142,0.0,126.94,505.85,-28.83,345.96,-7.1,0.84,67.845924,20.221369,1687.1,NaN,0.0,10.374194,,27 / 34,2988,2019-09-17 01:40:56:612
-0.1803,1.2431,9.7592,-0.1414,1.2129,9.7303,-0.0259,0.0221,-0.0614,-0.0057,-0.0179,-0.0088,0.0,127.98,506.45,-29.73,345.96,-7.1,0.84,67.845924,20.221369,1687.1,NaN,0.0,10.374194,,27 / 34,3008,2019-09-17 01:40:56:632
-0.1132,1.267,9.7664,-0.1384,1.2129,9.7304,0.0201,-0.0268,-0.016,0.0018,-0.0136,-0.0115,0.0,125.7,505.95,-31.65,346.07,-7.1,0.81,67.845924,20.221369,1687.1,NaN,0.0,10.374194,,27 / 34,3032,2019-09-17 01:40:56:656
-0.1731,1.2981,9.6874,-0.1384,1.2129,9.7304,-0.0092,0.0792,-0.09,-0.0174,-0.0248,-0.012,0.0,125.7,505.95,-31.65,346.07,-7.1,0.81,67.845924,20.221369,1687.1,NaN,0.0,10.374194,,27 / 34,3047,2019-09-17 01:40:56:671
-0.1851,1.2646,9.7736,-0.1314,1.2121,9.7306,-0.0021,0.0673,-0.0136,-0.0201,-0.0136,-0.0046,0.0,127.97,505.67,-30.89,346.07,-7.1,0.81,67.845924,20.221369,1687.1,NaN,0.0,10.374194,,27 / 34,3068,2019-09-17 01:40:56:692
-0.2353,1.2359,9.7928,-0.1314,1.2102,9.7308,-0.1026,0.0189,0.0015,-0.0147,-0.0083,-9.0E-4,0.0,127.39,505.08,-29.25,345.92,-7.09,0.77,67.845924,20.221369,1687.1,NaN,0.0,10.374194,,27 / 34,3087,2019-09-17 01:40:56:711
-0.209,1.2263,9.8023,-0.1335,1.2065,9.7312,-0.1218,0.0641,-0.026,-0.0216,-0.0072,0.0087,0.0,128.44,505.85,-29.56,345.92,-7.09,0.77,67.845924,20.221369,1687.1,NaN,0.0,10.374194,,27 / 34,3108,2019-09-17 01:40:56:732
-0.1611,1.2407,9.9149,-0.1347,1.2042,9.7315,-0.0076,0.0322,0.118,-0.0083,0.0018,0.0125,0.0,126.02,507.21,-29.47,346.09,-7.07,0.79,67.845924,20.221369,1687.1,NaN,0.0,10.374194,,27 / 34,3128,2019-09-17 01:40:56:752
-0.1252,1.1665,9.8957,-0.1314,1.2022,9.7318,0.0167,-0.034,0.1065,-0.0046,-0.0248,0.0098,0.0,126.47,506.74,-30.19,346.09,-7.07,0.79,67.845924,20.221369,1687.1,NaN,0.0,10.374194,,27 / 34,3148,2019-09-17 01:40:56:772
-0.1132,1.2,9.6946,-0.1257,1.2006,9.7321,0.0442,-0.0061,-0.0626,-0.0206,-0.0349,0.0093,0.0,126.78,506.45,-29.44,345.95,-7.04,0.77,67.845924,20.221369,1687.1,NaN,0.0,10.374194,,27 / 34,3168,2019-09-17 01:40:56:792
-0.0821,1.2311,9.7185,-0.1207,1.197,9.7326,0.0337,0.0422,-0.0444,-0.027,-0.0243,0.0125,0.0,127.69,505.84,-29.56,345.95,-7.04,0.77,67.845924,20.221369,1687.1,NaN,0.0,10.374194,,27 / 34,3188,2019-09-17 01:40:56:812
-0.1084,1.2215,9.7066,-0.1177,1.1891,9.7336,0.0076,0.0189,-0.1105,-0.0355,0.0029,0.0183,0.0,126.62,506.59,-30.33,345.98,-6.99,0.7,67.845924,20.221369,1687.1,NaN,0.0,10.374194,,27 / 34,3208,2019-09-17 01:40:56:832
-0.1132,1.1808,9.6683,-0.1177,1.1857,9.734,0.0171,-0.0038,-0.126,-0.0366,0.0071,0.0178,0.0,127.51,506.73,-31.66,345.98,-6.99,0.7,67.845924,20.221369,1687.1,NaN,0.0,10.374194,,27 / 34,3228,2019-09-17 01:40:56:852
-0.0725,1.1928,9.7592,-0.1184,1.1754,9.7352,0.0393,0.0346,-0.0593,-0.0461,0.0141,0.0274,0.0,126.92,506.59,-30.33,345.98,-6.92,0.69,67.845924,20.221369,1687.1,NaN,0.0,10.374194,,27 / 34,3249,2019-09-17 01:40:56:873
-0.0582,1.1329,9.7401,-0.1201,1.1692,9.736,0.0422,-0.0381,-0.0094,-0.0429,0.0279,0.0199,0.0,126.76,508.28,-29.8,345.98,-6.92,0.69,67.845924,20.221369,1687.1,NaN,0.0,10.374194,,27 / 34,3268,2019-09-17 01:40:56:892
-0.0677,1.1641,9.867,-0.1211,1.155,9.7376,0.0887,-0.0405,0.0218,-0.0477,0.0173,0.0199,0.0,128.13,506.14,-30.01,345.85,-6.81,0.71,67.845924,20.221369,1687.1,NaN,0.0,10.374194,,27 / 34,3288,2019-09-17 01:40:56:912
-0.039,1.1377,9.9005,-0.1204,1.1495,9.7383,0.1084,-0.0206,0.0043,-0.0563,0.0141,0.0071,0.0,126.63,506.6,-29.3,345.85,-6.81,0.71,67.845924,20.221369,1687.1,NaN,0.0,10.374194,,27 / 34,3308,2019-09-17 01:40:56:932
-0.039,1.0994,9.922,-0.1205,1.1414,9.7393,0.081,-0.0102,0.083,-0.0456,0.0231,0.0029,0.0,125.87,507.67,-29.34,346.11,-6.68,0.71,67.845924,20.221369,1687.1,NaN,0.0,10.374194,,27 / 34,3327,2019-09-17 01:40:56:951
-0.1587,1.1018,9.9436,-0.1301,1.1268,9.7408,-0.0266,-0.0454,0.1331,-0.0296,0.0364,0.0045,0.0,125.4,506.57,-30.78,346.11,-6.68,0.71,67.845924,20.221369,1687.1,NaN,0.0,10.374194,,27 / 34,3348,2019-09-17 01:40:56:972
-0.0965,1.097,10.0226,-0.1325,1.1219,9.7414,0.0274,-0.0314,0.1908,-0.0201,0.013,0.0029,0.0,126.76,507.5,-30.51,346.02,-6.6,0.77,67.845924,20.221369,1687.1,NaN,0.0,10.374194,,27 / 34,3368,2019-09-17 01:40:56:992
-0.1156,1.1305,9.788,-0.1319,1.1193,9.7417,0.0555,-0.0195,0.0879,-0.0089,-0.0099,-0.0035,0.0,126.94,505.08,-29.54,346.02,-6.6,0.77,67.845924,20.221369,1687.1,NaN,0.0,10.374194,,27 / 34,3388,2019-09-17 01:40:57:012
-0.0342,1.121,9.7185,-0.1249,1.1145,9.7423,0.0988,0.024,-0.0837,-0.0238,-0.0142,-0.0046,0.0,126.78,505.99,-29.72,345.96,-6.54,0.76,67.845924,20.221369,1687.1,NaN,0.0,10.374194,,27 / 34,3407,2019-09-17 01:40:57:031
-0.0534,1.1305,9.7569,-0.1211,1.1106,9.7428,0.0745,0.0233,-0.0512,-0.0286,-0.0046,-0.0078,0.0,127.23,507.22,-29.46,345.96,-6.54,0.76,67.845924,20.221369,1687.1,NaN,0.0,10.374194,,27 / 34,3428,2019-09-17 01:40:57:052
-0.0869,1.1162,9.8215,-0.1186,1.1036,9.7436,0.0421,0.0066,0.0011,-0.0291,0.0061,-0.0067,0.0,125.86,506.89,-30.35,346.09,-6.48,0.7,67.845924,20.221369,1687.1,NaN,0.0,10.374194,,27 / 31,3449,2019-09-17 01:40:57:073
-0.0773,1.0827,9.7736,-0.1186,1.0983,9.7442,0.0456,-0.0431,-0.0288,-0.0227,0.0045,-0.0072,0.0,125.27,506.74,-29.46,346.09,-6.48,0.7,67.845924,20.221373,1687.99,NaN,0.0,10.374194,,27 / 31,3468,2019-09-17 01:40:57:092
0.0017,1.0683,9.8119,-0.1157,1.0932,9.7448,0.0751,-0.0631,0.0043,-0.0318,-0.0078,-0.0152,0.0,126.93,506.6,-29.59,345.99,-6.43,0.7,67.845924,20.221373,1687.99,NaN,0.0,10.374194,,27 / 31,3488,2019-09-17 01:40:57:112
0.0089,1.0324,10.0298,-0.1122,1.0869,9.7456,0.1038,-0.094,0.0724,-0.0195,-3.0E-4,-0.0253,0.0,125.28,506.76,-28.43,345.99,-6.43,0.7,67.845924,20.221373,1687.99,NaN,0.0,10.374194,,27 / 31,3508,2019-09-17 01:40:57:132
-0.0055,0.9989,10.0801,-0.1074,1.0781,9.7466,0.1195,-0.0946,0.2782,-9.0E-4,0.0018,-0.0381,0.0,127.52,507.2,-30.49,345.88,-6.33,0.64,67.845924,20.221373,1687.99,NaN,0.0,10.374194,,27 / 31,3527,2019-09-17 01:40:57:151
-0.0701,1.0156,10.0058,-0.105,1.0767,9.7468,0.0705,-0.1046,0.1877,0.0178,-0.0115,-0.0578,0.0,126.47,506.74,-30.19,345.88,-6.33,0.64,67.845924,20.221373,1687.99,NaN,0.0,10.374194,,27 / 31,3548,2019-09-17 01:40:57:172
-0.1013,1.0946,9.8311,-0.1022,1.0775,9.7467,-0.0341,-0.0399,0.0808,0.0252,-0.0317,-0.0653,0.0,126.0,507.18,-31.24,346.09,-6.31,0.6,67.845924,20.221373,1687.99,NaN,0.0,10.374194,,27 / 31,3568,2019-09-17 01:40:57:192
-0.1659,1.1042,9.776,-0.0973,1.0843,9.746,-0.0606,0.0082,-0.0549,0.0311,-0.0328,-0.0557,0.0,126.47,506.75,-29.75,346.09,-6.31,0.6,67.845924,20.221373,1687.99,NaN,0.0,10.374194,,27 / 31,3589,2019-09-17 01:40:57:213
-0.1252,1.1257,9.7233,-0.0923,1.0929,9.7451,-0.0549,0.0206,-0.1231,0.0178,-0.0323,-0.0488,0.0,127.22,506.75,-30.19,345.98,-6.38,0.56,67.845924,20.221373,1687.99,NaN,0.0,10.374194,,27 / 31,3607,2019-09-17 01:40:57:231
-0.1851,1.1186,9.7257,-0.0887,1.0953,9.7449,-0.0754,0.009,-0.1043,0.0141,-0.0397,-0.0477,0.0,127.98,506.45,-29.73,345.98,-6.38,0.56,67.845924,20.221373,1687.99,NaN,0.0,10.374194,,27 / 31,3627,2019-09-17 01:40:57:251
-0.0486,1.0851,9.6778,-0.0819,1.0975,9.7447,-0.0139,0.0127,-0.1118,0.0156,-0.0403,-0.0504,0.0,127.22,507.52,-29.47,346.0,-6.42,0.5,67.845924,20.221373,1687.99,NaN,0.0,10.374194,,27 / 31,3647,2019-09-17 01:40:57:271
-0.1084,1.1138,9.5869,-0.077,1.1003,9.7444,-0.0154,0.0168,-0.1999,0.0039,-0.0275,-0.0493,0.0,126.77,506.74,-30.19,346.0,-6.42,0.5,67.845924,20.221373,1687.99,NaN,0.0,10.374194,,27 / 31,3668,2019-09-17 01:40:57:292
-0.106,1.1377,9.6659,-0.0748,1.1011,9.7444,-0.0427,0.038,-0.1487,-0.0184,-0.0222,-0.0355,0.0,126.6,506.57,-31.51,345.98,-6.44,0.45,67.845924,20.221373,1687.99,NaN,0.0,10.374194,,27 / 31,3688,2019-09-17 01:40:57:312
-0.0677,1.1521,9.7066,-0.0729,1.0995,9.7445,-0.0183,0.0472,-0.155,-0.0493,-0.0131,-0.0269,0.0,126.48,506.45,-29.0,345.98,-6.44,0.45,67.845924,20.221373,1687.99,NaN,0.0,10.374194,,27 / 31,3707,2019-09-17 01:40:57:331
-0.0749,1.1066,9.8263,-0.0702,1.0935,9.7452,0.0076,0.0463,-1.0E-4,-0.0456,-0.0024,-0.0232,0.0,126.48,506.75,-29.45,346.07,-6.4,0.41,67.845924,20.221373,1687.99,NaN,0.0,10.374194,,27 / 31,3728,2019-09-17 01:40:57:352
-0.0582,1.0372,10.1591,-0.0702,1.0828,9.7464,0.0855,-0.0589,0.2906,-0.0115,0.0178,-0.0349,0.0,126.16,508.11,-30.38,346.07,-6.4,0.41,67.845924,20.221373,1687.99,NaN,0.0,10.374194,,27 / 31,3748,2019-09-17 01:40:57:372
-0.0845,1.0946,10.1112,-0.0737,1.0824,9.7465,-0.0366,-0.0071,0.2939,0.0226,0.013,-0.0403,0.0,126.93,506.91,-29.31,345.97,-6.34,0.41,67.845924,20.221373,1687.99,NaN,0.0,10.374194,,27 / 31,3767,2019-09-17 01:40:57:391
-0.0247,1.0108,10.0561,-0.0737,1.0837,9.7463,-0.0018,-0.0617,0.2525,0.0242,-0.0211,-0.0456,0.0,127.24,505.69,-29.41,345.97,-6.34,0.41,67.845924,20.221373,1687.99,NaN,0.0,10.374194,,27 / 31,3787,2019-09-17 01:40:57:411
0.0113,0.9989,9.9723,-0.0705,1.0852,9.7462,0.0477,-0.0554,0.1915,0.0295,-0.0269,-0.0562,0.0,125.72,507.21,-29.03,346.07,-6.35,0.41,67.845924,20.221373,1687.99,NaN,0.0,10.374194,,27 / 31,3808,2019-09-17 01:40:57:432
0.0903,1.0372,9.8646,-0.0647,1.0894,9.7457,0.1341,-0.072,0.0658,0.0423,-0.0083,-0.061,0.0,126.49,506.46,-28.7,346.07,-6.35,0.41,67.845924,20.221373,1687.99,NaN,0.0,10.374194,,27 / 31,3827,2019-09-17 01:40:57:451
0.107,0.9797,9.6228,-0.0568,1.0965,9.745,0.1308,-0.0977,-0.1635,0.029,-0.0088,-0.0749,0.0,127.25,506.02,-27.95,345.93,-6.4,0.36,67.845924,20.221373,1687.99,NaN,0.0,10.374194,,27 / 31,3847,2019-09-17 01:40:57:471
0.1262,0.9821,9.7545,-0.05,1.0981,9.7449,0.1826,-0.1102,-0.104,0.0183,-0.0088,-0.0887,0.0,127.55,506.01,-28.68,345.93,-6.4,0.36,67.845924,20.221373,1687.99,NaN,0.0,10.374194,,27 / 31,3868,2019-09-17 01:40:57:492
0.0448,1.006,9.7353,-0.0486,1.0987,9.7448,0.1668,-0.1037,-0.0827,0.0199,0.0173,-0.0983,0.0,125.87,507.37,-28.88,346.06,-6.43,0.29,67.845924,20.221373,1687.99,NaN,0.0,10.374194,,27 / 31,3888,2019-09-17 01:40:57:512
0.0759,1.0252,9.7952,-0.051,1.0993,9.7447,0.1321,-0.0849,-0.0353,0.0194,0.0253,-0.1004,0.0,126.92,507.67,-29.63,346.06,-6.43,0.29,67.845924,20.221373,1687.99,NaN,0.0,10.374194,,27 / 31,3907,2019-09-17 01:40:57:531
0.0807,1.0036,9.7784,-0.054,1.0994,9.7447,0.1099,-0.1041,-0.0224,0.0141,0.0151,-0.1047,0.0,127.39,506.62,-28.56,345.96,-6.44,0.32,67.845924,20.221373,1687.99,NaN,0.0,10.374194,,27 / 31,3928,2019-09-17 01:40:57:552
0.1836,0.9893,9.8263,-0.0506,1.0953,9.7452,0.2084,-0.1124,8.0E-4,-0.0025,-3.0E-4,-0.1218,0.0,127.68,505.84,-30.01,345.96,-6.44,0.32,67.845924,20.221373,1687.99,NaN,0.0,10.374194,,27 / 31,3948,2019-09-17 01:40:57:572
0.2148,0.9797,9.8598,-0.0483,1.0928,9.7455,0.2351,-0.1171,0.0206,0.0055,0.0135,-0.1404,0.0,126.02,506.75,-29.46,346.06,-6.41,0.3,67.845924,20.221373,1687.99,NaN,0.0,10.374194,,27 / 31,3968,2019-09-17 01:40:57:592
0.0161,1.0683,9.9819,-0.0477,1.0915,9.7456,0.1629,-0.0498,0.1364,0.021,0.0194,-0.1638,0.0,126.49,505.69,-28.98,346.06,-6.41,0.3,67.845924,20.221373,1687.99,NaN,0.0,10.374194,,27 / 31,3987,2019-09-17 01:40:57:611
-0.142,1.1497,9.9364,-0.0522,1.0944,9.7453,-0.0175,-0.0158,0.1707,0.0359,0.0066,-0.1628,0.0,126.94,504.62,-29.53,345.91,-6.41,0.31,67.845924,20.221373,1687.99,NaN,0.0,10.374194,,27 / 31,4007,2019-09-17 01:40:57:631
-0.2593,1.2574,9.8742,-0.0595,1.1005,9.7445,-0.1789,0.083,0.0893,0.0316,-0.0056,-0.1526,0.0,127.98,506.76,-29.74,345.91,-6.41,0.31,67.845924,20.221373,1687.99,NaN,0.0,10.374194,,27 / 31,4028,2019-09-17 01:40:57:652
-0.2641,1.1904,9.7832,-0.0721,1.1152,9.7428,-0.1902,0.0584,-0.0289,0.0226,-0.0269,-0.1228,0.0,128.0,505.71,-28.67,345.83,-6.49,0.39,67.845924,20.221373,1687.99,NaN,0.0,10.374194,,27 / 31,4048,2019-09-17 01:40:57:672
-0.1851,1.2119,9.7521,-0.074,1.1206,9.7421,-0.0841,0.0472,-0.0602,0.0188,-0.0206,-0.1122,0.0,128.29,506.46,-29.73,345.83,-6.49,0.39,67.845924,20.221373,1687.99,NaN,0.0,10.374194,,27 / 31,4068,2019-09-17 01:40:57:692
-0.0845,1.1018,9.855,-0.0754,1.1242,9.7417,-0.0696,0.0186,-0.0509,0.0274,-0.003,-0.1063,0.0,126.79,505.23,-29.4,345.91,-6.58,0.44,67.845924,20.221373,1687.99,NaN,0.0,10.374194,,27 / 31,4087,2019-09-17 01:40:57:711
-0.0749,1.0731,9.8143,-0.0809,1.1333,9.7406,0.0114,-0.0661,0.0161,0.0423,-3.0E-4,-0.1266,0.0,126.93,505.84,-29.27,345.91,-6.58,0.44,67.845924,20.221373,1687.99,NaN,0.0,10.374194,,27 / 31,4109,2019-09-17 01:40:57:733
0.0065,1.0994,9.788,-0.0811,1.1375,9.7401,0.0607,-0.0739,-0.0117,0.0423,-0.004,-0.1383,0.0,127.99,506.46,-29.43,345.83,-6.64,0.48,67.845924,20.221373,1687.99,NaN,0.0,10.374194,,27 / 31,4127,2019-09-17 01:40:57:751
-0.0366,1.0874,9.7904,-0.0777,1.1425,9.7396,0.0297,-0.0776,-0.0116,0.0322,-0.0291,-0.1654,0.0,126.64,505.85,-28.83,345.83,-6.64,0.48,67.845924,20.221373,1687.99,NaN,0.0,10.374194,,27 / 31,4148,2019-09-17 01:40:57:772
-0.0127,1.0396,9.8358,-0.0774,1.1451,9.7393,0.0509,-0.091,-0.0164,0.0327,-0.0115,-0.1564,0.0,127.68,507.37,-29.61,345.86,-6.69,0.46,67.845924,20.221373,1687.99,NaN,0.0,10.374194,,27 / 31,4168,2019-09-17 01:40:57:792
0.1022,0.9677,9.8502,-0.0766,1.1487,9.7388,0.1375,-0.0983,0.0963,0.0545,-0.0024,-0.1761,0.0,127.24,505.23,-29.4,345.86,-6.69,0.46,67.845924,20.221373,1687.99,NaN,0.0,10.374194,,27 / 31,4187,2019-09-17 01:40:57:811
0.0831,0.9893,9.9053,-0.0692,1.155,9.7382,0.1409,-0.1814,0.0823,0.0407,-0.0381,-0.2096,0.0,127.54,505.23,-29.69,345.81,-6.75,0.44,67.845924,20.221373,1687.99,NaN,0.0,10.374194,,27 / 31,4208,2019-09-17 01:40:57:832
0.1453,1.0444,9.7904,-0.0649,1.1564,9.738,0.1976,-0.123,-0.0323,0.0385,-0.0429,-0.2144,0.0,128.14,505.38,-29.99,345.81,-6.75,0.44,67.845924,20.221373,1687.99,NaN,0.0,10.374194,,27 / 31,4227,2019-09-17 01:40:57:851
0.1693,1.0084,9.8071,-0.0512,1.162,9.7374,0.2341,-0.1443,0.0309,0.0476,-0.0408,-0.2251,0.0,127.99,506.0,-29.42,345.82,-6.78,0.35,67.845924,20.221373,1687.99,NaN,0.0,10.374194,,27 / 31,4248,2019-09-17 01:40:57:872
0.1382,1.0779,9.7449,-0.0441,1.1666,9.7369,0.2497,-0.0926,-0.0618,0.0492,-0.0174,-0.2661,0.0,128.0,506.47,-28.4,345.82,-6.78,0.35,67.845924,20.221373,1687.99,NaN,0.0,10.374194,,27 / 31,4268,2019-09-17 01:40:57:892
0.0831,1.1569,9.8742,-0.043,1.1745,9.736,0.1324,-0.0405,-9.0E-4,0.054,-3.0E-4,-0.2704,0.0,128.3,505.25,-28.95,345.79,-6.83,0.26,67.845924,20.221373,1687.99,NaN,0.0,10.374194,,27 / 31,4287,2019-09-17 01:40:57:911
0.0065,1.1162,9.8622,-0.0452,1.1819,9.7351,0.0808,-0.0494,0.0666,0.0673,-3.0E-4,-0.2815,0.0,128.14,505.39,-29.55,345.79,-6.83,0.26,67.845924,20.221373,1687.99,NaN,0.0,10.374194,,27 / 31,4308,2019-09-17 01:40:57:932
0.0472,1.1114,9.8622,-0.0477,1.1965,9.7333,0.1108,-0.1111,0.0751,0.0737,-0.0227,-0.2949,0.0,129.49,506.77,-29.73,345.74,-6.97,0.28,67.845924,20.221373,1687.99,NaN,0.0,10.374194,,27 / 31,4328,2019-09-17 01:40:57:952
0.0113,1.0683,9.8167,-0.0468,1.2026,9.7325,0.0693,-0.1365,0.0026,0.063,-0.0253,-0.3156,0.0,129.2,505.86,-29.26,345.74,-6.97,0.28,67.845924,20.221373,1687.99,NaN,0.0,10.374194,,27 / 31,4348,2019-09-17 01:40:57:972
-0.0989,1.0898,10.0322,-0.056,1.2174,9.7306,-0.0077,-0.1467,0.0394,0.078,0.0066,-0.3188,0.0,129.51,504.18,-29.35,345.55,-7.09,0.29,67.845924,20.221373,1687.99,NaN,0.0,10.374194,,27 / 31,4368,2019-09-17 01:40:57:992
-0.0582,1.1066,9.8813,-0.0619,1.2234,9.7298,-0.0197,-0.1255,0.0957,0.0907,0.0146,-0.3258,0.0,129.66,504.64,-29.52,345.55,-7.09,0.29,67.845924,20.221373,1687.99,NaN,0.0,10.374194,,27 / 31,4388,2019-09-17 01:40:58:012
-0.1204,1.1138,9.9244,-0.0713,1.2341,9.7284,-0.0341,-0.1617,0.1238,0.1094,-0.003,-0.3439,0.0,130.26,504.49,-29.36,345.55,-7.23,0.42,67.845924,20.221373,1687.99,NaN,0.0,10.374194,,27 / 31,4408,2019-09-17 01:40:58:032
-0.0366,1.1641,9.7904,-0.0802,1.2582,9.7253,0.0324,-0.1075,0.0084,0.1158,-0.0296,-0.3556,0.0,131.32,505.27,-28.64,345.55,-7.23,0.42,67.845924,20.221373,1687.99,NaN,0.0,10.374194,,27 / 31,4427,2019-09-17 01:40:58:051
-0.3335,1.4298,9.7305,-0.084,1.2856,9.7217,-0.013,-0.0595,-0.0811,0.1174,-0.0477,-0.3875,0.0,131.18,504.35,-28.76,345.45,-7.42,0.47,67.845924,20.221373,1687.99,NaN,0.0,10.374194,,27 / 34,4449,2019-09-17 01:40:58:073
-0.525,1.5232,9.6012,-0.0953,1.3097,9.7183,-0.4372,0.2616,-0.1997,0.1349,-0.0253,-0.3471,0.0,130.55,505.71,-29.69,345.45,-7.42,0.47,67.84592,20.221376,1688.26,NaN,0.0,10.374194,,27 / 34,4469,2019-09-17 01:40:58:093
-0.1994,2.196,9.0673,-0.1032,1.3301,9.7155,-0.5358,0.3368,-0.3659,0.111,0.005,-0.2911,0.0,131.18,504.66,-28.77,345.48,-7.8,0.61,67.84592,20.221376,1688.26,NaN,0.0,10.374194,,27 / 34,4487,2019-09-17 01:40:58:111
-0.8339,1.4705,9.5821,-0.1109,1.3458,9.7132,-0.6658,0.3859,-0.3381,0.0545,0.0279,-0.264,0.0,132.07,504.5,-29.64,345.48,-7.8,0.61,67.84592,20.221376,1688.26,NaN,0.0,10.374194,,27 / 34,4508,2019-09-17 01:40:58:132
-0.6232,1.6597,9.5916,-0.1256,1.3581,9.7113,-0.5013,0.2959,-0.2286,0.0428,0.0199,-0.2661,0.0,132.99,503.91,-28.73,345.24,-7.96,0.74,67.84592,20.221376,1688.26,NaN,0.0,10.374194,,27 / 34,4527,2019-09-17 01:40:58:151
-0.8985,1.6022,9.5964,-0.1459,1.3683,9.7096,-0.8184,0.251,-0.2535,0.022,0.0247,-0.216,0.0,132.68,504.36,-29.19,345.24,-7.96,0.74,67.84592,20.221376,1688.26,NaN,0.0,10.374194,,27 / 34,4548,2019-09-17 01:40:58:172
-0.5945,1.4849,9.8742,-0.1556,1.3683,9.7095,-0.6554,0.1433,-0.1115,-0.0126,0.0247,-0.1095,0.0,132.99,504.37,-28.45,345.25,-8.02,0.92,67.84592,20.221376,1688.26,NaN,0.0,10.374194,,27 / 34,4568,2019-09-17 01:40:58:192
-0.4532,1.4131,9.9675,-0.1606,1.3638,9.71,-0.2493,-0.0091,0.2867,-0.0142,-0.0339,-0.0536,0.0,133.29,504.52,-28.6,345.25,-8.02,0.92,67.84592,20.221376,1688.26,NaN,0.0,10.374194,,27 / 34,4587,2019-09-17 01:40:58:211
-0.2018,1.3245,10.0585,-0.156,1.3627,9.7103,0.0201,-0.0955,0.2604,0.013,-0.0365,-0.0706,0.0,132.99,504.37,-28.45,345.25,-7.99,0.95,67.84592,20.221376,1688.26,NaN,0.0,10.374194,,27 / 34,4608,2019-09-17 01:40:58:232
-0.0701,1.3005,9.9939,-0.1521,1.3649,9.71,0.0557,-0.0966,0.237,0.022,-0.0355,-0.077,0.0,132.84,504.22,-28.3,345.25,-7.99,0.95,67.84592,20.221376,1688.26,NaN,0.0,10.374194,,27 / 34,4628,2019-09-17 01:40:58:252
0.0376,1.2814,10.025,-0.148,1.3776,9.7083,0.1749,-0.0858,0.205,0.0598,-0.0227,-0.1116,0.0,132.98,504.66,-29.5,345.28,-8.02,0.89,67.84592,20.221376,1688.26,NaN,0.0,10.374194,,27 / 34,4648,2019-09-17 01:40:58:272
-0.0749,1.4083,9.8335,-0.1441,1.3899,9.7066,0.1028,-0.0456,0.0566,0.0955,-0.0461,-0.1431,0.0,132.68,503.58,-29.91,345.28,-8.02,0.89,67.84592,20.221376,1688.26,NaN,0.0,10.374194,,27 / 34,4667,2019-09-17 01:40:58:291
-0.0654,1.4418,9.709,-0.141,1.4045,9.7045,0.0614,0.0546,-0.0073,0.1078,-0.028,-0.1463,0.0,133.44,503.3,-29.15,345.21,-8.23,0.83,67.84592,20.221376,1688.26,NaN,0.0,10.374194,,27 / 34,4688,2019-09-17 01:40:58:312
-0.2665,1.4849,9.539,-0.1412,1.4234,9.7018,-0.0462,0.0297,-0.2373,0.0567,-0.0142,-0.1127,0.0,133.58,503.75,-29.61,345.21,-8.23,0.83,67.84592,20.221376,1688.26,NaN,0.0,10.374194,,27 / 34,4708,2019-09-17 01:40:58:332
-0.1252,1.4131,9.6826,-0.1423,1.4321,9.7005,-0.0654,-0.0042,-0.1957,0.0471,-0.0195,-0.1111,0.0,134.06,503.47,-28.27,345.1,-8.4,0.84,67.84592,20.221376,1688.26,NaN,0.0,10.374194,,27 / 34,4728,2019-09-17 01:40:58:352
-0.1013,1.4035,9.8263,-0.1432,1.4421,9.699,0.0791,-0.0501,0.0196,0.0247,-0.0115,-0.1132,0.0,132.84,503.75,-28.88,345.1,-8.4,0.84,67.84592,20.221376,1688.26,NaN,0.0,10.374194,,27 / 34,4748,2019-09-17 01:40:58:372
-0.039,1.3724,9.9029,-0.1466,1.4459,9.6984,0.0574,-0.1221,0.0763,0.038,0.0205,-0.1106,0.0,133.44,503.6,-29.16,345.24,-8.46,0.85,67.84592,20.221376,1688.26,NaN,0.0,10.374194,,27 / 34,4767,2019-09-17 01:40:58:391
-0.2928,1.5854,9.6946,-0.1534,1.4523,9.6973,-0.0897,0.0628,0.0092,0.0455,0.037,-0.1276,0.0,134.35,503.46,-28.56,345.24,-8.46,0.85,67.84592,20.221376,1688.26,NaN,0.0,10.374194,,27 / 34,4788,2019-09-17 01:40:58:412
-0.4412,1.6118,9.6659,-0.1693,1.4651,9.6951,-0.2154,0.0946,-0.1235,0.0359,0.0258,-0.0946,0.0,133.44,505.13,-28.77,345.27,-8.56,0.96,67.84592,20.221376,1688.26,NaN,0.0,10.374194,,27 / 34,4807,2019-09-17 01:40:58:431
-0.4819,1.6142,9.5342,-0.1741,1.4683,9.6945,-0.2417,0.0797,-0.348,0.0231,0.0295,-0.0834,0.0,134.04,503.75,-29.61,345.27,-8.56,0.96,67.84592,20.221376,1688.26,NaN,0.0,10.374194,,27 / 34,4827,2019-09-17 01:40:58:451
-0.3886,1.449,9.5988,-0.1878,1.4646,9.6948,-0.1406,0.0826,-0.2061,-0.0296,0.0354,-0.061,0.0,133.0,504.38,-28.01,345.24,-8.61,1.07,67.84592,20.221376,1688.26,NaN,0.0,10.374194,,27 / 34,4848,2019-09-17 01:40:58:472
-0.367,1.3867,9.7066,-0.1948,1.4583,9.6957,-0.1526,-0.0827,-0.0675,-0.0456,0.0284,-0.0413,0.0,134.34,503.76,-29.31,345.24,-8.61,1.07,67.84592,20.221376,1688.26,NaN,0.0,10.374194,,27 / 34,4868,2019-09-17 01:40:58:492
-0.2162,1.4131,9.9077,-0.197,1.4496,9.6969,-0.0247,-0.0597,0.1134,-0.036,-0.0147,-0.0504,0.0,134.05,502.23,-29.26,345.09,-8.55,1.15,67.84592,20.221376,1688.26,NaN,0.0,10.374194,,27 / 34,4888,2019-09-17 01:40:58:512
-0.1539,1.4322,9.7688,-0.1956,1.4422,9.6981,0.0158,-0.0965,-0.0074,-0.0275,-0.0222,-0.0701,0.0,133.3,503.46,-28.57,345.09,-8.55,1.15,67.84592,20.221376,1688.26,NaN,0.0,10.374194,,27 / 34,4908,2019-09-17 01:40:58:532
-0.312,1.3939,9.8335,-0.1952,1.4372,9.6988,0.0118,-0.0316,-0.0086,0.0125,0.062,-0.0701,0.0,135.24,503.29,-30.18,345.03,-8.43,1.15,67.84592,20.221376,1688.26,NaN,0.0,10.374194,,27 / 34,4927,2019-09-17 01:40:58:551
-0.4604,1.4777,9.7281,-0.2242,1.4416,9.6975,-0.2151,0.0175,-0.0623,0.0199,0.0503,-0.06,0.0,134.48,505.12,-30.24,345.03,-8.43,1.15,67.84592,20.221376,1688.26,NaN,0.0,10.374194,,27 / 34,4947,2019-09-17 01:40:58:571
-0.4341,1.5854,9.8358,-0.2347,1.4466,9.6965,-0.1937,0.1142,0.0399,0.0204,0.0215,-0.0568,0.0,136.16,503.47,-29.29,344.92,-8.45,1.32,67.84592,20.221376,1688.26,NaN,0.0,10.374194,,27 / 34,4968,2019-09-17 01:40:58:592
-0.4269,1.5687,9.6419,-0.2476,1.4545,9.695,-0.2345,0.1481,-0.1002,0.0045,0.0178,-0.0291,0.0,134.19,503.91,-29.17,344.92,-8.45,1.32,67.84592,20.221376,1688.26,NaN,0.0,10.374194,,27 / 34,4988,2019-09-17 01:40:58:612
-0.3742,1.5088,9.7066,-0.2538,1.4564,9.6946,0.0048,0.0278,0.1305,-0.0115,-0.0083,-0.0291,0.0,134.97,502.1,-27.93,345.01,-8.54,1.5,67.84592,20.221376,1688.26,NaN,0.0,10.374194,,27 / 34,5009,2019-09-17 01:40:58:633
-0.2401,1.4609,9.9316,-0.2547,1.4553,9.6947,-0.0289,0.0331,0.0779,-0.0073,-0.0184,-0.0296,0.0,135.27,503.33,-27.96,345.01,-8.54,1.5,67.84592,20.221376,1688.26,NaN,0.0,10.374194,,27 / 34,5027,2019-09-17 01:40:58:651
-0.1707,1.4059,9.7353,-0.2502,1.4532,9.6952,0.0411,-0.0089,-0.0074,-0.0041,-0.0062,-0.0136,0.0,136.0,504.69,-29.19,344.99,-8.53,1.49,67.84592,20.221376,1688.26,NaN,0.0,10.374194,,27 / 34,5048,2019-09-17 01:40:58:672
-0.2665,1.4825,9.7209,-0.2482,1.4496,9.6957,-0.0228,0.0222,-0.0231,-0.0174,-0.019,-0.0104,0.0,135.1,503.76,-29.6,344.99,-8.53,1.49,67.84592,20.221376,1688.26,NaN,0.0,10.374194,,27 / 34,5068,2019-09-17 01:40:58:692
-0.2425,1.4681,9.6994,-0.2426,1.4459,9.6964,-0.0053,0.0221,-0.0607,-0.0201,-0.028,-0.0174,0.0,134.95,502.84,-29.43,345.04,-8.49,1.45,67.84592,20.221376,1688.26,NaN,0.0,10.374194,,27 / 34,5088,2019-09-17 01:40:58:712
-0.1875,1.5112,9.922,-0.2382,1.4433,9.6969,0.121,-0.003,-0.0375,-0.0232,-0.0238,-0.0285,0.0,135.24,503.3,-29.88,345.04,-8.49,1.45,67.84592,20.221376,1688.26,NaN,0.0,10.374194,,27 / 34,5108,2019-09-17 01:40:58:732
-0.1324,1.4753,9.8239,-0.2353,1.4414,9.6973,0.0679,0.0633,0.1206,-0.0131,0.0103,-0.0573,0.0,134.34,503.45,-29.6,345.15,-8.45,1.39,67.84592,20.221376,1688.26,NaN,0.0,10.374194,,27 / 34,5128,2019-09-17 01:40:58:752
-0.2521,1.5208,9.8837,-0.2349,1.439,9.6976,0.0411,-0.0028,0.0333,-0.0062,0.0087,-0.061,0.0,135.4,505.0,-28.61,345.15,-8.45,1.39,67.84592,20.221376,1688.26,NaN,0.0,10.374194,,27 / 34,5147,2019-09-17 01:40:58:771
-0.4053,1.5376,9.7736,-0.245,1.441,9.6971,-0.1629,0.0533,0.0202,0.0135,0.0183,-0.0626,0.0,135.4,502.69,-29.57,345.04,-8.44,1.4,67.84592,20.221376,1688.26,NaN,0.0,10.374194,,27 / 34,5168,2019-09-17 01:40:58:792
-0.4317,1.5495,9.7808,-0.2534,1.4452,9.6963,-0.1939,0.1135,-0.0274,0.0226,0.0263,-0.0328,0.0,136.75,502.85,-30.15,345.04,-8.44,1.4,67.84592,20.221376,1688.26,NaN,0.0,10.374194,,27 / 34,5188,2019-09-17 01:40:58:812
-0.3934,1.5495,9.6563,-0.27,1.4568,9.6941,-0.1005,0.0807,-0.1116,0.0172,0.0103,-0.0083,0.0,136.01,504.39,-28.44,344.96,-8.51,1.55,67.84592,20.221376,1688.26,NaN,0.0,10.374194,,27 / 34,5207,2019-09-17 01:40:58:831
-0.3766,1.516,9.6802,-0.2716,1.4578,9.6939,-0.0787,0.0298,-0.1338,-3.0E-4,-0.0078,-0.004,0.0,135.09,504.22,-29.62,344.96,-8.51,1.55,67.84592,20.221376,1688.26,NaN,0.0,10.374194,,27 / 34,5228,2019-09-17 01:40:58:852
-0.3096,1.4969,9.8742,-0.2714,1.4565,9.6941,-0.0633,0.0264,0.0173,-0.0147,-0.0051,0.0061,0.0,135.4,503.76,-29.6,345.08,-8.55,1.6,67.84592,20.221376,1688.26,NaN,0.0,10.374194,,27 / 34,5252,2019-09-17 01:40:58:876
-0.2473,1.4729,9.764,-0.2721,1.4554,9.6942,-0.0829,0.0296,0.0038,-0.0105,0.0087,0.0098,0.0,135.7,504.23,-29.32,345.08,-8.55,1.6,67.84592,20.221376,1688.26,NaN,0.0,10.374194,,27 / 34,5268,2019-09-17 01:40:58:892
-0.3239,1.5088,9.7377,-0.2707,1.4533,9.6946,-0.0292,0.0041,0.0279,-0.0019,-0.0088,-3.0E-4,0.0,136.3,503.31,-29.88,344.95,-8.53,1.6,67.84592,20.221376,1688.26,NaN,0.0,10.374194,,27 / 34,5288,2019-09-17 01:40:58:912
-0.2952,1.4705,9.7473,-0.2695,1.4528,9.6947,-0.0412,-0.0109,-0.0321,-0.0078,-0.0238,0.0029,0.0,136.15,504.99,-29.34,344.95,-8.53,1.6,67.84592,20.221376,1688.26,NaN,0.0,10.374194,,27 / 34,5308,2019-09-17 01:40:58:932
-0.2808,1.3987,9.867,-0.2679,1.4518,9.6949,-0.0405,-0.0062,0.003,-0.0089,-0.0216,0.0045,0.0,136.14,504.21,-30.35,344.98,-8.51,1.58,67.84592,20.221376,1688.26,NaN,0.0,10.374194,,27 / 34,5328,2019-09-17 01:40:58:952
-0.2856,1.4681,9.788,-0.2675,1.4519,9.6949,-0.0815,0.0147,0.0496,0.0135,-0.003,2.0E-4,0.0,135.99,504.37,-29.91,344.98,-8.51,1.58,67.84592,20.221376,1688.26,NaN,0.0,10.374194,,27 / 34,5348,2019-09-17 01:40:58:972
-0.3646,1.4346,9.7449,-0.269,1.4545,9.6945,-0.0608,-0.0416,-0.0496,0.0119,-0.0056,0.0055,0.0,137.2,503.76,-30.33,344.87,-8.51,1.58,67.84592,20.221376,1688.26,NaN,0.0,10.374194,,27 / 34,5367,2019-09-17 01:40:58:991
-0.2689,1.4418,9.7688,-0.2694,1.4554,9.6943,-0.0545,-0.0245,-0.0177,0.0071,7.0E-4,0.0109,0.0,134.5,502.07,-29.85,344.87,-8.51,1.58,67.84592,20.221376,1688.26,NaN,0.0,10.374194,,27 / 34,5387,2019-09-17 01:40:59:011
-0.2665,1.437,9.6395,-0.2702,1.4567,9.6941,-0.001,-0.016,-0.1197,-0.0014,0.0018,0.0082,0.0,135.1,503.77,-28.87,345.08,-8.54,1.6,67.84592,20.221376,1688.26,NaN,0.0,10.374194,,27 / 34,5408,2019-09-17 01:40:59:032
-0.2593,1.5352,9.7066,-0.2689,1.4562,9.6942,-0.0072,0.0343,-0.0889,-0.0083,-0.0078,0.0066,0.0,136.75,503.61,-29.88,345.08,-8.54,1.6,67.84592,20.221376,1688.26,NaN,0.0,10.374194,,27 / 34,5428,2019-09-17 01:40:59:052
-0.3862,1.5663,9.7305,-0.2677,1.4563,9.6942,-0.0708,0.0834,-0.0309,-0.0126,-0.0088,0.0151,0.0,136.3,504.69,-29.48,345.0,-8.54,1.59,67.84592,20.221376,1688.26,NaN,0.0,10.374194,,27 / 34,5447,2019-09-17 01:40:59:071
-0.2473,1.5807,9.8837,-0.2671,1.4564,9.6942,-0.039,0.0797,0.0059,-0.0078,-0.0094,0.0194,0.0,136.0,503.3,-29.88,345.0,-8.54,1.59,67.845924,20.221376,1689.72,NaN,0.0,10.374194,,27 / 34,5468,2019-09-17 01:40:59:092
-0.2521,1.5376,9.8957,-0.2648,1.4601,9.6937,0.0426,0.0488,0.1102,0.0108,0.0045,0.0189,0.0,135.71,503.0,-29.28,344.94,-8.55,1.57,67.845924,20.221376,1689.72,NaN,0.0,10.374194,,27 / 34,5488,2019-09-17 01:40:59:112
-0.2641,1.5184,9.697,-0.2641,1.464,9.6932,0.0683,0.0314,-0.001,0.022,0.0034,0.0071,0.0,136.44,504.98,-30.37,344.94,-8.55,1.57,67.845924,20.221376,1689.72,NaN,0.0,10.374194,,27 / 34,5508,2019-09-17 01:40:59:132
-0.2737,1.5304,9.7353,-0.2626,1.4696,9.6924,0.0392,0.0655,0.0222,0.0098,-0.0024,0.0061,0.0,136.46,504.24,-28.58,344.97,-8.6,1.56,67.845924,20.221376,1689.72,NaN,0.0,10.374194,,27 / 34,5528,2019-09-17 01:40:59:152
-0.2521,1.4969,9.8023,-0.2613,1.4718,9.6921,0.1275,0.0077,0.0556,0.0146,0.0061,2.0E-4,0.0,136.75,503.3,-30.61,344.97,-8.6,1.56,67.845924,20.221376,1689.72,NaN,0.0,10.374194,,27 / 34,5547,2019-09-17 01:40:59:171
-0.2856,1.4705,9.8191,-0.2618,1.4748,9.6916,-0.02,-0.0179,0.0414,0.0172,-9.0E-4,-0.0024,0.0,135.99,503.6,-30.63,344.98,-8.65,1.55,67.845924,20.221376,1689.72,NaN,0.0,10.374194,,27 / 34,5568,2019-09-17 01:40:59:192
-0.2689,1.5423,9.9508,-0.2616,1.4795,9.6909,-0.0638,0.0406,0.0583,0.0172,-0.0211,-0.004,0.0,135.1,503.76,-29.6,344.98,-8.65,1.55,67.845924,20.221376,1689.72,NaN,0.0,10.374194,,27 / 34,5587,2019-09-17 01:40:59:211
-0.2689,1.4921,9.7975,-0.2601,1.4835,9.6903,-0.0585,0.0028,0.1712,0.038,-0.003,-0.003,0.0,135.4,503.76,-29.6,345.08,-8.68,1.55,67.845924,20.221376,1689.72,NaN,0.0,10.374194,,27 / 34,5608,2019-09-17 01:40:59:232
-0.209,1.4753,9.7473,-0.2604,1.4928,9.6889,0.061,-0.0402,0.0011,0.0354,0.0034,-0.0024,0.0,136.45,503.76,-30.33,345.08,-8.68,1.55,67.845924,20.221376,1689.72,NaN,0.0,10.374194,,27 / 34,5627,2019-09-17 01:40:59:251
-0.1803,1.5064,9.6994,-0.2606,1.5003,9.6877,0.0756,-0.0069,-0.1021,0.0529,0.0151,-0.0152,0.0,136.16,502.23,-29.99,344.91,-8.76,1.54,67.845924,20.221376,1689.72,NaN,0.0,10.374194,,27 / 34,5648,2019-09-17 01:40:59:272
-0.2066,1.5352,9.4983,-0.2618,1.5072,9.6866,0.0276,0.0132,-0.274,0.0236,0.0029,-0.0179,0.0,136.0,505.46,-28.77,344.91,-8.76,1.54,67.845924,20.221376,1689.72,NaN,0.0,10.374194,,27 / 34,5667,2019-09-17 01:40:59:291
-0.3335,1.5567,9.5653,-0.2622,1.5122,9.6858,0.0074,-0.007,-0.238,-0.0073,0.0109,-0.0104,0.0,136.15,503.76,-30.04,344.97,-8.86,1.55,67.845924,20.221376,1689.72,NaN,0.0,10.374194,,27 / 34,5687,2019-09-17 01:40:59:311
-0.2473,1.5352,9.7904,-0.2643,1.5112,9.6859,-0.0505,0.0269,-0.0895,-0.0184,-0.0024,-0.004,0.0,135.55,502.84,-29.87,344.97,-8.86,1.55,67.845924,20.221376,1689.72,NaN,0.0,10.374194,,27 / 34,5708,2019-09-17 01:40:59:332
-0.2665,1.4585,9.9029,-0.2614,1.5078,9.6865,0.0293,-0.0051,0.1453,0.0071,-0.0115,-3.0E-4,0.0,136.14,503.76,-30.34,344.97,-8.85,1.56,67.845924,20.221376,1689.72,NaN,0.0,10.374194,,27 / 34,5727,2019-09-17 01:40:59:351
-0.221,1.4921,9.6539,-0.2591,1.5087,9.6864,0.0367,-0.0097,-0.0367,0.005,-0.0014,-0.003,0.0,136.29,503.9,-30.64,344.97,-8.85,1.56,67.845924,20.221376,1689.72,NaN,0.0,10.374194,,27 / 34,5748,2019-09-17 01:40:59:372
-0.2593,1.5423,9.7353,-0.2586,1.5095,9.6863,0.0323,-0.0066,-0.0621,-0.0014,0.0039,-0.004,0.0,135.24,502.82,-30.9,345.05,-8.85,1.53,67.845924,20.221376,1689.72,NaN,0.0,10.374194,,27 / 34,5768,2019-09-17 01:40:59:392
-0.2856,1.5423,9.7425,-0.2601,1.512,9.6859,-0.0138,0.022,-0.024,0.0098,0.0082,-0.0078,0.0,136.45,503.46,-29.59,345.05,-8.85,1.53,67.845924,20.221376,1689.72,NaN,0.0,10.374194,,27 / 34,5788,2019-09-17 01:40:59:412
-0.2593,1.5232,9.7161,-0.261,1.5134,9.6857,0.0136,0.0103,-0.0775,0.0013,0.0013,-0.0083,0.0,136.31,502.85,-29.42,344.93,-8.87,1.55,67.845924,20.221376,1689.72,NaN,0.0,10.374194,,27 / 34,5809,2019-09-17 01:40:59:433
-0.2665,1.5232,9.7329,-0.2605,1.5135,9.6857,0.0107,4.0E-4,-0.0362,-0.0025,-0.0083,-0.0126,0.0,136.0,502.84,-30.16,344.93,-8.87,1.55,67.845924,20.221376,1689.72,NaN,0.0,10.374194,,27 / 34,5827,2019-09-17 01:40:59:451
-0.2449,1.5112,9.709,-0.2595,1.5128,9.6858,0.0155,-0.0075,-0.0312,-0.0078,-0.011,-0.0126,0.0,137.05,503.92,-30.19,344.86,-8.87,1.53,67.845924,20.221376,1689.72,NaN,0.0,10.374194,,27 / 34,5848,2019-09-17 01:40:59:472
-0.2545,1.5519,9.7425,-0.2562,1.5112,9.6861,0.0352,0.0222,-0.0141,-0.0051,-0.0094,-0.012,0.0,136.3,503.61,-30.18,344.86,-8.87,1.53,67.845924,20.221376,1689.72,NaN,0.0,10.374194,,27 / 34,5868,2019-09-17 01:40:59:492
-0.2545,1.5376,9.6515,-0.2556,1.5105,9.6863,0.0221,0.0153,-0.0435,-0.0142,-0.0046,-0.0163,0.0,137.98,502.26,-29.24,344.69,-8.86,1.52,67.845924,20.221376,1689.72,NaN,0.0,10.374194,,27 / 34,5887,2019-09-17 01:40:59:511
-0.2545,1.5423,9.7616,-0.2571,1.5074,9.6867,-0.019,0.0545,-0.0669,-0.0232,0.0077,-0.0168,0.0,136.15,502.99,-30.31,344.69,-8.86,1.52,67.845924,20.221376,1689.72,NaN,0.0,10.374194,,27 / 34,5908,2019-09-17 01:40:59:532
-0.3143,1.5088,9.8239,-0.2597,1.5053,9.6869,-0.0271,0.0117,-0.0073,-0.0142,0.0087,-0.0158,0.0,137.2,502.99,-30.75,344.84,-8.84,1.52,67.845924,20.221376,1689.72,NaN,0.0,10.374194,,27 / 34,5928,2019-09-17 01:40:59:552
-0.2952,1.504,9.8263,-0.2614,1.5042,9.6871,-0.009,-0.0467,0.0568,-0.0025,0.0087,-0.0142,0.0,137.2,502.69,-30.74,344.84,-8.84,1.52,67.845924,20.221376,1689.72,NaN,0.0,10.374194,,27 / 34,5947,2019-09-17 01:40:59:571
-0.3383,1.4873,9.843,-0.2651,1.5027,9.6872,-0.0544,-0.0365,0.0675,-0.0051,0.0018,-0.0174,0.0,136.45,503.46,-29.59,344.94,-8.82,1.56,67.845924,20.221376,1689.72,NaN,0.0,10.374194,,27 / 34,5968,2019-09-17 01:40:59:592
-0.2497,1.5352,9.7736,-0.2659,1.5035,9.6871,0.0194,0.0117,0.0115,0.0055,-0.0056,-0.0131,0.0,137.51,504.7,-29.18,344.94,-8.82,1.56,67.845924,20.221376,1689.72,NaN,0.0,10.374194,,27 / 34,5988,2019-09-17 01:40:59:612
-0.2425,1.5256,9.6802,-0.2626,1.5048,9.6869,-0.015,0.0131,-0.0803,-0.0014,-0.0168,-0.0179,0.0,135.55,503.92,-29.16,344.96,-8.83,1.57,67.845924,20.221376,1689.72,NaN,0.0,10.374194,,27 / 34,6007,2019-09-17 01:40:59:631
-0.3072,1.5423,9.7185,-0.2613,1.5047,9.687,-0.0295,-0.0059,-0.0212,-0.0089,-0.0216,-0.0104,0.0,136.45,503.46,-30.03,344.96,-8.83,1.57,67.845924,20.221376,1689.72,NaN,0.0,10.374194,,27 / 34,6028,2019-09-17 01:40:59:652
-0.2928,1.5423,9.7137,-0.2604,1.5051,9.687,-0.0161,0.0022,-0.0722,0.0034,-0.0051,-0.0024,0.0,137.66,502.7,-30.0,344.73,-8.82,1.54,67.845924,20.221376,1689.72,NaN,0.0,10.374194,,27 / 34,6048,2019-09-17 01:40:59:672
-0.3,1.5376,9.6443,-0.2606,1.5055,9.6869,-0.0208,-0.0111,-0.0752,-0.0105,-0.0078,2.0E-4,0.0,137.52,503.94,-29.15,344.73,-8.82,1.54,67.845924,20.221376,1689.72,NaN,0.0,10.374194,,27 / 34,6067,2019-09-17 01:40:59:691
-0.3024,1.4969,9.7473,-0.2609,1.5042,9.6871,-0.0672,0.0229,-0.0569,-0.0158,-0.0072,0.0045,0.0,136.3,503.92,-29.9,344.97,-8.83,1.54,67.845924,20.221376,1689.72,NaN,0.0,10.374194,,27 / 34,6088,2019-09-17 01:40:59:712
-0.3,1.4969,9.9196,-0.2606,1.4991,9.6879,-0.0028,-0.0275,0.0154,-0.0094,-0.004,0.0039,0.0,137.52,503.63,-29.14,344.97,-8.83,1.54,67.845924,20.221376,1689.72,NaN,0.0,10.374194,,27 / 34,6108,2019-09-17 01:40:59:732
-0.2569,1.4873,9.776,-0.2595,1.4976,9.6882,0.0093,0.0015,0.0127,-0.0147,-0.004,0.0023,0.0,136.75,503.61,-30.18,344.86,-8.79,1.54,67.845924,20.221376,1689.72,NaN,0.0,10.374194,,27 / 34,6128,2019-09-17 01:40:59:752
-0.3359,1.5256,9.7784,-0.26,1.4955,9.6885,-0.0671,0.0031,0.0102,-0.0206,7.0E-4,-3.0E-4,0.0,136.89,504.21,-31.08,344.86,-8.79,1.54,67.845924,20.221376,1689.72,NaN,0.0,10.374194,,27 / 34,6148,2019-09-17 01:40:59:772
-0.3287,1.5423,9.8047,-0.2617,1.4932,9.6888,-0.019,0.0291,0.0799,-0.0089,0.0034,0.0029,0.0,136.14,502.68,-30.74,344.95,-8.76,1.55,67.845924,20.221376,1689.72,NaN,0.0,10.374194,,27 / 34,6168,2019-09-17 01:40:59:792
-0.3503,1.5615,9.6467,-0.2644,1.4944,9.6885,-0.0497,0.0778,-0.0341,2.0E-4,-9.0E-4,0.005,0.0,136.76,503.63,-29.15,344.95,-8.76,1.55,67.845924,20.221376,1689.72,NaN,0.0,10.374194,,27 / 34,6187,2019-09-17 01:40:59:811
-0.2497,1.6309,9.6419,-0.2653,1.4946,9.6885,0.0226,0.1192,-0.1229,-0.0376,-0.0163,0.0247,0.0,136.3,503.3,-30.17,344.94,-8.77,1.57,67.845924,20.221376,1689.72,NaN,0.0,10.374194,,27 / 34,6208,2019-09-17 01:40:59:832
-0.1587,1.5783,9.6371,-0.2526,1.4842,9.6904,0.1055,0.0405,-0.1161,-0.0536,-0.0339,0.0306,0.0,137.05,503.92,-29.89,344.94,-8.77,1.57,67.845924,20.221376,1689.72,NaN,0.0,10.374194,,27 / 34,6228,2019-09-17 01:40:59:852
-0.0151,1.4274,9.8598,-0.239,1.474,9.6923,0.22,-0.0227,0.1,-0.0765,-0.0674,0.0279,0.0,136.0,502.85,-29.86,344.94,-8.7,1.49,67.845924,20.221376,1689.72,NaN,0.0,10.374194,,27 / 34,6248,2019-09-17 01:40:59:872
-0.13,1.504,9.8837,-0.2187,1.4614,9.6947,0.174,0.0123,0.1468,-0.0547,-0.0717,0.0082,0.0,136.14,502.67,-31.48,344.94,-8.7,1.49,67.845924,20.221376,1689.72,NaN,0.0,10.374194,,27 / 34,6267,2019-09-17 01:40:59:891
-0.1707,1.5256,9.8598,-0.2028,1.4525,9.6964,0.0,0.0674,0.0898,-0.0493,-0.0839,0.0034,0.0,136.75,502.84,-30.6,344.83,-8.57,1.29,67.845924,20.221376,1689.72,NaN,0.0,10.374194,,27 / 34,6287,2019-09-17 01:40:59:911
-0.2042,1.4418,9.7856,-0.1931,1.4458,9.6976,-0.0732,-0.0123,0.0142,-0.0461,-0.0749,0.0013,0.0,135.7,503.46,-29.3,344.83,-8.57,1.29,67.845924,20.221376,1689.72,NaN,0.0,10.374194,,27 / 34,6308,2019-09-17 01:40:59:932
-0.2186,1.3843,9.8358,-0.1841,1.439,9.6987,-0.0188,-0.0343,0.0781,-0.0238,-0.0408,-0.0046,0.0,136.14,504.21,-30.79,344.95,-8.44,1.09,67.845924,20.221376,1689.72,NaN,0.0,10.374194,,27 / 34,6328,2019-09-17 01:40:59:952
-0.221,1.3676,9.6683,-0.1765,1.4282,9.7005,0.0191,-0.1403,-0.1823,-0.0243,-0.0222,-0.0078,0.0,136.44,504.98,-30.37,344.95,-8.44,1.09,67.845924,20.221376,1689.72,NaN,0.0,10.374194,,27 / 34,6348,2019-09-17 01:40:59:972
-7.0E-4,1.3221,9.6731,-0.1688,1.4179,9.7021,0.1477,-0.1831,-0.1387,-0.0557,-0.0381,-0.0227,0.0,136.91,503.77,-29.59,344.83,-8.37,1.04,67.845924,20.221376,1689.72,NaN,0.0,10.374194,,27 / 34,6368,2019-09-17 01:40:59:992
-0.0965,1.2335,9.6731,-0.1578,1.4014,9.7047,0.0563,-0.1853,-0.0535,-0.0568,-0.0403,-0.0445,0.0,137.19,503.75,-31.07,344.83,-8.37,1.04,67.845924,20.221376,1689.72,NaN,0.0,10.374194,,27 / 34,6387,2019-09-17 01:41:00:011
-0.1348,1.3556,9.6731,-0.1527,1.3906,9.7064,0.1063,-0.0953,-0.0122,-0.0483,0.0039,-0.0429,0.0,135.54,504.36,-30.21,344.94,-8.15,0.9,67.845924,20.221376,1689.72,NaN,0.0,10.374194,,27 / 34,6409,2019-09-17 01:41:00:033
-0.1563,1.3508,9.6323,-0.1519,1.3819,9.7076,0.0157,-0.0384,-0.0791,-0.052,0.0034,-0.0472,0.0,136.31,502.55,-29.41,344.94,-8.15,0.9,67.845924,20.221376,1689.72,NaN,0.0,10.374194,,27 / 34,6428,2019-09-17 01:41:00:052
-0.2282,1.3508,9.855,-0.1505,1.362,9.7104,-0.09,0.0073,0.0632,-0.0669,-0.0238,-0.0653,0.0,137.18,504.2,-31.82,344.84,-8.03,0.9,67.845924,20.221376,1689.72,NaN,0.0,10.374194,,27 / 34,6447,2019-09-17 01:41:00:071
-0.1922,1.3436,9.7904,-0.1498,1.3551,9.7114,-0.0284,0.0128,0.0388,-0.0355,-0.0222,-0.061,0.0,136.3,503.3,-30.17,344.84,-8.03,0.9,67.845924,20.221373,1691.08,NaN,0.0,10.374194,,27 / 34,6468,2019-09-17 01:41:00:092
-0.2401,1.3364,9.9604,-0.1504,1.3485,9.7123,-0.0863,-0.0076,0.2115,-0.0238,-0.0163,-0.0605,0.0,135.99,504.68,-29.92,344.97,-7.92,0.88,67.845924,20.221373,1691.08,NaN,0.0,10.374194,,27 / 34,6488,2019-09-17 01:41:00:112
-0.1492,1.37,10.0226,-0.1522,1.3464,9.7126,-0.0235,-0.0254,0.2562,0.0018,2.0E-4,-0.0589,0.0,136.12,504.95,-31.85,344.97,-7.92,0.88,67.845924,20.221373,1691.08,NaN,0.0,10.374194,,27 / 34,6507,2019-09-17 01:41:00:131
-0.0151,1.3628,9.9747,-0.1538,1.3488,9.7122,-0.0707,0.0526,0.2483,0.0417,-0.0253,-0.0531,0.0,137.65,503.0,-30.74,344.71,-7.91,0.91,67.845924,20.221373,1691.08,NaN,0.0,10.374194,,27 / 34,6528,2019-09-17 01:41:00:152
-0.2689,1.4011,9.8095,-0.1431,1.361,9.7107,-0.0168,0.0167,0.0114,0.0385,-0.0392,-0.0637,0.0,137.21,502.71,-29.56,344.71,-7.91,0.91,67.845924,20.221373,1691.08,NaN,0.0,10.374194,,27 / 34,6547,2019-09-17 01:41:00:171
-0.0725,1.3053,9.7281,-0.1396,1.3664,9.71,-0.0419,-0.0306,-0.0212,0.0428,-0.0238,-0.0658,0.0,137.48,504.65,-32.13,344.87,-7.98,0.84,67.845924,20.221373,1691.08,NaN,0.0,10.374194,,27 / 34,6568,2019-09-17 01:41:00:192
-0.1946,1.4202,9.6276,-0.1332,1.3785,9.7084,-0.0389,0.055,-0.0854,0.0327,-0.02,-0.0573,0.0,136.44,504.53,-30.06,344.87,-7.98,0.84,67.845924,20.221373,1691.08,NaN,0.0,10.374194,,27 / 34,6588,2019-09-17 01:41:00:212
-0.0773,1.2934,9.5605,-0.1345,1.3825,9.7078,0.0138,-0.0729,-0.2014,0.0268,-0.003,-0.0536,0.0,137.96,504.23,-30.04,344.72,-8.08,0.79,67.845924,20.221373,1691.08,NaN,0.0,10.374194,,27 / 34,6608,2019-09-17 01:41:00:232
-0.0342,1.3676,9.606,-0.1343,1.3811,9.708,0.0902,-0.0958,-0.1733,-0.0073,0.0077,-0.0685,0.0,135.68,504.2,-30.8,344.72,-8.08,0.79,67.845924,20.221373,1691.08,NaN,0.0,10.374194,,27 / 34,6627,2019-09-17 01:41:00:251
-0.1922,1.4849,9.5533,-0.1434,1.3779,9.7083,-0.0898,0.0796,-0.2372,-0.0366,0.0354,-0.0781,0.0,135.69,503.45,-30.33,344.9,-8.08,0.8,67.845924,20.221373,1691.08,NaN,0.0,10.374194,,27 / 34,6649,2019-09-17 01:41:00:273
-0.3455,1.4657,9.7113,-0.1527,1.3741,9.7087,-0.1608,-0.067,-0.2174,-0.0296,0.0561,-0.0648,0.0,137.04,503.6,-30.92,344.9,-8.08,0.8,67.845924,20.221373,1691.08,NaN,0.0,10.374194,,27 / 34,6668,2019-09-17 01:41:00:292
-0.1731,1.2479,10.2453,-0.1733,1.3731,9.7085,0.1662,-0.2405,0.1179,0.0178,0.0023,-0.0317,0.0,136.28,503.89,-31.37,344.95,-8.03,0.97,67.845924,20.221373,1691.08,NaN,0.0,10.374194,,27 / 34,6687,2019-09-17 01:41:00:311
-0.5322,1.4059,9.8239,-0.1751,1.3718,9.7086,-0.1933,-0.1241,-0.3531,-0.0041,0.0151,-0.0381,0.0,135.71,503.78,-28.86,344.95,-8.03,0.97,67.845924,20.221373,1691.08,NaN,0.0,10.374194,,27 / 34,6708,2019-09-17 01:41:00:332
-0.209,1.334,9.8311,-0.1751,1.3716,9.7087,-0.2292,-0.0113,0.0873,0.0098,0.0039,-0.0035,0.0,138.26,502.86,-30.15,344.71,-8.04,1.03,67.845924,20.221373,1691.08,NaN,0.0,10.374194,,27 / 34,6728,2019-09-17 01:41:00:352
-0.0773,1.4633,9.8167,-0.175,1.376,9.7081,0.0497,0.0177,0.0552,0.0311,0.0013,7.0E-4,0.0,136.9,505.0,-29.34,344.71,-8.04,1.03,67.845924,20.221373,1691.08,NaN,0.0,10.374194,,27 / 34,6751,2019-09-17 01:41:00:375
-0.0917,1.3101,9.8287,-0.1704,1.3834,9.7071,0.1013,-0.0113,0.0608,0.0364,-0.0461,0.0023,0.0,137.18,504.2,-31.82,344.85,-8.07,1.03,67.845924,20.221373,1691.08,NaN,0.0,10.374194,,27 / 34,6768,2019-09-17 01:41:00:392
-0.1228,1.4609,9.5773,-0.164,1.3856,9.7069,0.0182,2.0E-4,-0.1854,0.0061,-0.0499,-9.0E-4,0.0,137.94,502.68,-31.77,344.85,-8.07,1.03,67.845924,20.221373,1691.08,NaN,0.0,10.374194,,27 / 34,6787,2019-09-17 01:41:00:411
0.3057,1.6764,9.8191,-0.1492,1.3901,9.7065,0.4809,0.3382,0.0724,0.0114,-0.0866,-0.0371,0.0,137.19,503.76,-30.77,344.84,-8.12,0.97,67.845924,20.221373,1691.08,NaN,0.0,10.374194,,27 / 34,6808,2019-09-17 01:41:00:432
0.0999,1.6932,9.7233,-0.1362,1.3928,9.7063,0.2332,0.3128,-0.028,2.0E-4,-0.0978,-0.0744,0.0,138.25,503.61,-30.61,344.84,-8.12,0.97,67.845924,20.221373,1691.08,NaN,0.0,10.374194,,27 / 34,6828,2019-09-17 01:41:00:452
0.1238,1.5423,9.7281,-0.1093,1.3948,9.7063,0.1942,0.2292,0.0229,-3.0E-4,-0.1026,-0.0855,0.0,137.82,503.63,-29.44,344.71,-8.17,0.73,67.845924,20.221373,1691.08,NaN,0.0,10.374194,,27 / 34,6847,2019-09-17 01:41:00:471
-0.0127,1.3149,9.5533,-0.0869,1.3937,9.7067,0.118,0.0949,-0.0142,-0.0147,-0.0989,-0.0722,0.0,137.21,503.46,-30.02,344.71,-8.17,0.73,67.845924,20.221373,1691.08,NaN,0.0,10.374194,,27 / 34,6867,2019-09-17 01:41:00:491
0.0352,1.4083,9.5964,-0.0774,1.3912,9.7072,0.0783,-0.022,-0.1026,-0.027,-0.1095,-0.0637,0.0,136.92,502.71,-29.26,344.77,-8.17,0.51,67.845924,20.221373,1691.08,NaN,0.0,10.374194,,27 / 34,6888,2019-09-17 01:41:00:512
-0.0055,1.4059,9.9508,-0.0564,1.3862,9.708,0.1446,0.0753,0.0403,-0.0105,-0.1132,-0.0621,0.0,137.79,503.9,-31.36,344.77,-8.17,0.51,67.845924,20.221373,1691.08,NaN,0.0,10.374194,,27 / 34,6907,2019-09-17 01:41:00:531
-0.0701,1.3053,10.013,-0.0296,1.3854,9.7083,-0.0716,-0.0965,0.1549,0.0029,-0.1079,-0.0557,0.0,136.9,504.22,-30.35,344.79,-8.12,0.24,67.845924,20.221373,1691.08,NaN,0.0,10.374194,,27 / 34,6928,2019-09-17 01:41:00:552
-0.039,1.2479,9.8861,-0.022,1.3852,9.7083,-0.0552,-0.0976,0.1843,0.0013,-0.0536,-0.0456,0.0,137.05,503.61,-30.62,344.79,-8.12,0.24,67.845924,20.221373,1691.08,NaN,0.0,10.374194,,27 / 34,6949,2019-09-17 01:41:00:573
-0.1755,1.1665,9.8502,-0.016,1.3842,9.7085,-0.0911,-0.1901,0.143,-0.0121,-0.0429,-0.0445,0.0,135.99,502.83,-30.6,344.86,-8.11,0.09,67.845924,20.221373,1691.08,NaN,0.0,10.374194,,27 / 34,6967,2019-09-17 01:41:00:591
-0.2162,1.1138,9.8406,-0.0075,1.379,9.7092,-0.1393,-0.2351,0.1144,-0.011,-0.0408,-0.0238,0.0,137.2,503.0,-30.31,344.86,-8.11,0.09,67.845924,20.221373,1691.08,NaN,0.0,10.374194,,27 / 34,6987,2019-09-17 01:41:00:611
-0.3048,1.1856,9.9268,-0.0029,1.3767,9.7095,-0.2887,-0.1814,0.1317,-0.0046,-0.0381,-0.0056,0.0,136.9,503.46,-30.03,344.74,-8.08,0.04,67.845924,20.221373,1691.08,NaN,0.0,10.374194,,27 / 34,7008,2019-09-17 01:41:00:632
-0.2856,1.1377,9.8454,0.0021,1.3759,9.7096,-0.2471,-0.1723,0.143,2.0E-4,-0.0381,0.0167,0.0,137.95,502.22,-31.75,344.74,-8.08,0.04,67.845924,20.221373,1691.08,NaN,0.0,10.374194,,27 / 34,7027,2019-09-17 01:41:00:651
-0.0797,1.5184,9.8047,0.013,1.3719,9.7102,-0.0509,0.1395,0.061,-0.0174,-0.0451,0.0119,0.0,136.45,503.45,-30.32,344.85,-8.06,-0.04,67.845924,20.221373,1691.08,NaN,0.0,10.374194,,27 / 34,7048,2019-09-17 01:41:00:672
-0.0677,1.4633,9.9532,0.0189,1.3703,9.7104,-0.1083,0.0894,0.1237,0.0029,-0.0504,-0.0035,0.0,137.04,503.59,-31.36,344.85,-8.06,-0.04,67.845924,20.221373,1691.08,NaN,0.0,10.374194,,27 / 34,7068,2019-09-17 01:41:00:692
-0.0079,1.4538,9.7808,0.0255,1.371,9.7103,-0.0551,0.1162,0.1555,0.013,-0.044,-9.0E-4,0.0,137.05,503.92,-29.89,344.76,-8.04,-0.15,67.845924,20.221373,1691.08,NaN,0.0,10.374194,,27 / 34,7088,2019-09-17 01:41:00:712
-0.0175,1.37,9.7473,0.0326,1.3728,9.71,-0.0934,-0.0266,-0.0609,-0.0174,-0.0285,-9.0E-4,0.0,136.14,504.21,-30.35,344.76,-8.04,-0.15,67.845924,20.221373,1691.08,NaN,0.0,10.374194,,27 / 34,7108,2019-09-17 01:41:00:732
0.028,1.3724,9.7975,0.0362,1.3706,9.7103,-0.0347,-0.0136,0.0022,-0.0211,-0.0397,0.0029,0.0,136.45,503.46,-29.59,344.84,-8.03,-0.21,67.845924,20.221373,1691.08,NaN,0.0,10.374194,,27 / 34,7127,2019-09-17 01:41:00:751
0.028,1.3005,9.7353,0.0481,1.3631,9.7113,-0.0252,-0.0984,-0.0373,-0.0201,-0.0552,0.0061,0.0,137.52,502.56,-29.4,344.84,-8.03,-0.21,67.845924,20.221373,1691.08,NaN,0.0,10.374194,,27 / 34,7147,2019-09-17 01:41:00:771
0.0855,1.3316,9.7281,0.0552,1.3584,9.712,0.0036,-0.0887,-0.0797,-0.0227,-0.0488,0.0066,0.0,136.14,503.75,-30.78,344.86,-7.99,-0.28,67.845924,20.221373,1691.08,NaN,0.0,10.374194,,27 / 34,7168,2019-09-17 01:41:00:792
0.0184,1.3125,9.7257,0.065,1.3509,9.7129,-0.0398,-0.0663,-0.0512,-0.0339,-0.0371,0.0061,0.0,137.51,503.92,-29.89,344.86,-7.99,-0.28,67.845924,20.221373,1691.08,NaN,0.0,10.374194,,27 / 34,7188,2019-09-17 01:41:00:812
0.1166,1.2981,9.7377,0.0714,1.3439,9.7139,0.1023,-0.048,-0.1254,-0.0515,-0.0248,0.0066,0.0,136.43,504.97,-31.11,344.89,-7.88,-0.42,67.845924,20.221373,1691.08,NaN,0.0,10.374194,,27 / 34,7207,2019-09-17 01:41:00:831
0.1142,1.2862,9.8263,0.0846,1.3257,9.7163,0.0615,-0.0236,0.0791,-0.06,-0.0168,0.0066,0.0,135.55,503.92,-29.46,344.89,-7.88,-0.42,67.845924,20.221373,1691.08,NaN,0.0,10.374194,,27 / 34,7228,2019-09-17 01:41:00:852
-0.063,1.3364,9.8957,0.0876,1.3148,9.7177,-0.0181,-0.093,0.0957,-0.0658,-0.0333,0.0189,0.0,136.76,505.46,-28.76,344.77,-7.77,-0.5,67.845924,20.221373,1691.08,NaN,0.0,10.374194,,27 / 34,7248,2019-09-17 01:41:00:872
0.1549,1.3484,9.9244,0.0989,1.3008,9.7195,0.0758,0.0328,0.1286,-0.0616,-0.0573,0.0231,0.0,136.75,503.61,-30.18,344.77,-7.77,-0.5,67.845924,20.221373,1691.08,NaN,0.0,10.374194,,27 / 34,7267,2019-09-17 01:41:00:891
0.1525,1.279,9.7497,0.1031,1.2906,9.7208,-0.2912,-0.2831,0.2922,-0.044,-0.0376,0.0343,0.0,136.46,503.01,-29.57,344.82,-7.62,-0.58,67.845924,20.221373,1691.08,NaN,0.0,10.374194,,27 / 34,7287,2019-09-17 01:41:00:911
0.3297,1.4729,9.7856,0.1113,1.2851,9.7214,0.1554,0.1617,-0.032,-0.0435,-0.0605,0.022,0.0,136.76,502.85,-29.86,344.82,-7.62,-0.58,67.845924,20.221373,1691.08,NaN,0.0,10.374194,,27 / 34,7308,2019-09-17 01:41:00:932
0.2052,1.4011,9.8694,0.1285,1.2819,9.7217,0.0686,0.1047,0.1658,-0.0216,-0.0584,0.0199,0.0,136.28,504.36,-30.94,344.84,-7.51,-0.76,67.845924,20.221373,1691.08,NaN,0.0,10.374194,,27 / 34,7328,2019-09-17 01:41:00:952
0.2746,1.3915,9.7784,0.1462,1.2789,9.7218,0.119,0.0964,-0.0316,-0.0211,-0.0456,0.0167,0.0,135.98,503.89,-31.37,344.84,-7.51,-0.76,67.845924,20.221373,1691.08,NaN,0.0,10.374194,,27 / 34,7348,2019-09-17 01:41:00:972
0.2004,1.3843,9.6491,0.1576,1.2752,9.7221,0.0309,0.0682,-0.1432,-0.0339,-0.0467,0.0055,0.0,135.7,504.23,-29.32,344.83,-7.49,-0.86,67.845924,20.221373,1691.08,NaN,0.0,10.374194,,27 / 34,7368,2019-09-17 01:41:00:992
0.1836,1.2814,9.8622,0.1632,1.27,9.7227,0.0026,0.0051,0.0305,-0.0408,-0.0344,0.005,0.0,135.52,504.35,-31.39,344.83,-7.49,-0.86,67.845924,20.221373,1691.08,NaN,0.0,10.374194,,27 / 34,7387,2019-09-17 01:41:01:011
0.1788,1.3245,9.8263,0.1673,1.265,9.7233,-0.0387,0.0459,0.0818,-0.0254,-0.0147,0.0039,0.0,135.53,503.9,-30.64,344.83,-7.41,-0.99,67.845924,20.221373,1691.08,NaN,0.0,10.374194,,27 / 34,7407,2019-09-17 01:41:01:031
0.1022,1.1425,9.9723,0.1654,1.2617,9.7237,-0.0548,-0.0885,0.1097,-0.0307,0.0178,0.0029,0.0,135.08,504.97,-30.38,344.83,-7.41,-0.99,67.845924,20.221373,1691.08,NaN,0.0,10.374194,,27 / 34,7428,2019-09-17 01:41:01:052
0.0304,1.0707,10.0992,0.1692,1.2505,9.7251,-0.1267,-0.0329,0.1272,-0.0318,-0.0472,0.0066,0.0,136.44,504.98,-30.08,344.86,-7.36,-0.99,67.845924,20.221373,1691.08,NaN,0.0,10.374194,,26 / 33,7448,2019-09-17 01:41:01:072
0.2579,1.2287,9.6419,0.174,1.2456,9.7257,0.1508,0.071,-0.0029,-0.0323,0.029,0.0119,0.0,135.38,504.51,-30.81,344.86,-7.36,-0.99,67.84594,20.221375,1692.11,NaN,0.0,10.374194,,26 / 33,7467,2019-09-17 01:41:01:091
0.2243,1.2048,9.6491,0.1812,1.2342,9.727,-0.061,0.1182,-0.1959,-0.0376,-0.036,0.0093,0.0,135.69,504.99,-29.64,344.86,-7.27,-1.0,67.84594,20.221375,1692.11,NaN,0.0,10.374194,,26 / 33,7488,2019-09-17 01:41:01:112
0.0711,1.0156,9.6419,0.1875,1.2289,9.7275,-0.0948,-0.1707,-0.1572,-0.0643,-0.0653,0.0093,0.0,135.23,503.9,-30.64,344.86,-7.27,-1.0,67.84594,20.221375,1692.11,NaN,0.0,10.374194,,26 / 33,7507,2019-09-17 01:41:01:131
0.3943,1.2119,9.7856,0.189,1.2203,9.7286,-0.3632,0.2898,-0.1562,-0.0499,-0.0275,0.029,0.0,136.45,503.77,-29.6,344.83,-7.15,-1.11,67.84594,20.221375,1692.11,NaN,0.0,10.374194,,26 / 33,7528,2019-09-17 01:41:01:152
0.1453,1.1329,9.7281,0.1956,1.2002,9.731,-0.1938,0.0838,-0.1496,-0.0531,-0.0035,0.0215,0.0,134.94,503.28,-30.62,344.83,-7.15,-1.11,67.84594,20.221375,1692.11,NaN,0.0,10.374194,,26 / 33,7548,2019-09-17 01:41:01:172
0.1525,1.1569,9.9604,0.1997,1.1896,9.7322,0.0079,-0.1272,0.173,-0.0435,-0.0104,0.0407,0.0,134.78,504.51,-30.37,344.96,-7.03,-1.15,67.84594,20.221375,1692.11,NaN,0.0,10.374194,,26 / 33,7567,2019-09-17 01:41:01:191
0.2603,1.0994,9.7999,0.1999,1.1763,9.7338,0.0162,-0.0352,-0.0063,-0.0392,0.0055,0.0316,0.0,135.53,505.89,-30.26,344.96,-7.03,-1.15,67.84594,20.221375,1692.11,NaN,0.0,10.374194,,26 / 33,7587,2019-09-17 01:41:01:211
0.0424,1.3867,9.9196,0.2058,1.1722,9.7342,0.0257,-0.0202,0.048,-0.0414,-0.0088,0.0306,0.0,135.08,504.21,-30.36,344.93,-6.89,-1.18,67.84594,20.221375,1692.11,NaN,0.0,10.374194,,26 / 33,7608,2019-09-17 01:41:01:232
0.21,1.2,9.9316,0.2097,1.1674,9.7347,0.0348,0.1744,0.2513,-0.0163,-0.0701,0.0444,0.0,134.92,505.88,-30.71,344.93,-6.89,-1.18,67.84594,20.221375,1692.11,NaN,0.0,10.374194,,26 / 33,7627,2019-09-17 01:41:01:251
0.3297,1.0468,9.9484,0.2249,1.1688,9.7341,0.2408,-0.0694,0.1551,-0.0158,-0.0179,0.0455,0.0,135.54,505.13,-29.94,344.85,-6.85,-1.32,67.84594,20.221375,1692.11,NaN,0.0,10.374194,,26 / 33,7648,2019-09-17 01:41:01:272
0.2914,1.2263,9.9604,0.2348,1.1645,9.7344,0.062,0.0206,0.1433,-0.0222,0.0023,0.0423,0.0,135.68,504.97,-30.38,344.85,-6.85,-1.32,67.84594,20.221375,1692.11,NaN,0.0,10.374194,,26 / 33,7667,2019-09-17 01:41:01:291
0.3776,1.2215,10.1303,0.2397,1.1645,9.7343,0.1239,0.0639,0.3361,0.0045,0.0386,0.0194,0.0,135.1,504.23,-28.88,344.92,-6.82,-1.38,67.84594,20.221375,1692.11,NaN,0.0,10.374194,,26 / 33,7688,2019-09-17 01:41:01:312
0.2603,1.2311,9.8406,0.2369,1.1646,9.7344,0.0548,0.0335,0.016,-0.0137,0.0194,0.0178,0.0,134.17,504.65,-30.97,344.92,-6.82,-1.38,67.84594,20.221375,1692.11,NaN,0.0,10.374194,,26 / 33,7709,2019-09-17 01:41:01:333
0.3153,1.2383,9.9029,0.2324,1.1654,9.7344,0.0389,0.0934,0.0692,-0.011,0.0178,0.013,0.0,136.44,505.29,-30.09,344.84,-6.82,-1.37,67.84594,20.221375,1692.11,NaN,0.0,10.374194,,26 / 33,7728,2019-09-17 01:41:01:352
0.2387,1.2143,9.9628,0.2302,1.1651,9.7345,0.0051,0.0479,0.1214,-0.0046,0.021,0.0125,0.0,134.79,503.75,-30.05,344.84,-6.82,-1.37,67.84594,20.221375,1692.11,NaN,0.0,10.374194,,26 / 33,7749,2019-09-17 01:41:01:373
0.2914,1.1617,9.8311,0.2269,1.1663,9.7344,0.0288,-0.0254,-0.0108,0.0018,0.0199,0.013,0.0,135.41,504.54,-28.3,344.95,-6.83,-1.34,67.84594,20.221375,1692.11,NaN,0.0,10.374194,,26 / 33,7770,2019-09-17 01:41:01:394
0.186,1.1689,9.9029,0.2256,1.1659,9.7345,-0.0346,0.006,0.071,0.0013,0.0045,0.013,0.0,133.58,504.21,-29.63,344.95,-6.83,-1.34,67.84594,20.221375,1692.11,NaN,0.0,10.374194,,26 / 33,7788,2019-09-17 01:41:01:412
0.1717,1.1641,9.9795,0.2266,1.1651,9.7346,-0.001,-0.0283,0.1345,7.0E-4,-0.0056,0.0151,0.0,133.57,505.26,-30.4,345.06,-6.83,-1.33,67.84594,20.221375,1692.11,NaN,0.0,10.374194,,26 / 33,7808,2019-09-17 01:41:01:432
0.2004,1.2095,9.9604,0.2263,1.1679,9.7342,0.0065,0.0356,0.1289,0.0364,0.0061,0.0242,0.0,134.93,504.36,-30.21,345.06,-6.83,-1.33,67.84594,20.221375,1692.11,NaN,0.0,10.374194,,26 / 33,7828,2019-09-17 01:41:01:452
0.2866,1.1641,9.7736,0.2272,1.1781,9.733,0.0367,-0.03,-0.0536,0.0306,-0.0014,0.022,0.0,134.18,505.12,-29.95,345.06,-6.87,-1.33,67.84594,20.221375,1692.11,NaN,0.0,10.374194,,26 / 33,7847,2019-09-17 01:41:01:471
0.2794,1.2526,9.7497,0.2275,1.1834,9.7323,0.0388,0.0797,-0.0799,0.0306,0.0093,0.0215,0.0,134.78,504.2,-30.36,345.06,-6.87,-1.33,67.84594,20.221375,1692.11,NaN,0.0,10.374194,,26 / 33,7868,2019-09-17 01:41:01:492
0.2052,1.2263,9.6084,0.2254,1.1895,9.7316,-0.0212,0.0048,-0.2092,0.0231,0.0114,0.0284,0.0,135.22,505.88,-30.7,344.98,-6.93,-1.34,67.84594,20.221375,1692.11,NaN,0.0,10.374194,,26 / 33,7888,2019-09-17 01:41:01:512
0.2818,1.1066,9.6084,0.2236,1.1929,9.7313,0.0083,-0.0113,-0.1853,0.0119,0.0247,0.0237,0.0,134.32,504.96,-30.83,344.98,-6.93,-1.34,67.84594,20.221375,1692.11,NaN,0.0,10.374194,,26 / 33,7907,2019-09-17 01:41:01:531
0.1812,1.097,9.6802,0.2181,1.1912,9.7316,0.0606,-0.0887,-0.1847,-0.0062,0.0205,0.0157,0.0,135.23,503.9,-30.64,344.92,-6.99,-1.3,67.84594,20.221375,1692.11,NaN,0.0,10.374194,,26 / 33,7927,2019-09-17 01:41:01:551
0.2722,1.0827,9.7305,0.216,1.1868,9.7322,0.0461,-0.1089,-0.0924,-0.0163,0.0189,0.0135,0.0,133.59,502.98,-29.59,344.92,-6.99,-1.3,67.84594,20.221375,1692.11,NaN,0.0,10.374194,,26 / 33,7948,2019-09-17 01:41:01:572
0.3201,1.0994,9.7425,0.2138,1.1793,9.7331,0.1018,-0.112,-0.0752,-0.0147,0.0215,0.0098,0.0,134.78,504.51,-30.07,344.95,-6.93,-1.26,67.84594,20.221375,1692.11,NaN,0.0,10.374194,,26 / 33,7968,2019-09-17 01:41:01:592
0.2914,1.1042,9.7616,0.212,1.1749,9.7337,0.0682,-0.0783,-0.0548,-0.019,0.0354,0.0098,0.0,135.39,504.52,-30.07,344.95,-6.93,-1.26,67.84594,20.221375,1692.11,NaN,0.0,10.374194,,26 / 33,7987,2019-09-17 01:41:01:611
0.2794,1.1593,9.788,0.2072,1.171,9.7343,0.0838,-0.0635,-0.0351,-0.0184,0.054,0.0034,0.0,134.93,503.89,-30.64,344.93,-6.86,-1.22,67.84594,20.221375,1692.11,NaN,0.0,10.374194,,26 / 33,8008,2019-09-17 01:41:01:632
0.3057,1.121,9.7401,0.1991,1.1619,9.7355,0.0812,0.0069,-0.034,-0.0248,0.0402,0.0023,0.0,134.8,503.77,-28.87,344.93,-6.86,-1.22,67.84594,20.221375,1692.11,NaN,0.0,10.374194,,26 / 33,8028,2019-09-17 01:41:01:652
0.2531,1.1497,9.8167,0.1973,1.1576,9.7361,0.0316,0.0159,0.0519,-0.0227,0.021,-0.0035,0.0,135.07,504.96,-30.82,344.96,-6.8,-1.17,67.84594,20.221375,1692.11,NaN,0.0,10.374194,,26 / 33,8048,2019-09-17 01:41:01:672
0.2626,1.1736,9.867,0.1962,1.1516,9.7368,0.0578,2.0E-4,0.0352,-0.0174,0.0157,-0.0067,0.0,134.17,505.11,-30.98,344.96,-6.8,-1.17,67.84594,20.221375,1692.11,NaN,0.0,10.374194,,26 / 33,8068,2019-09-17 01:41:01:692
0.2076,1.1353,9.9077,0.1954,1.1484,9.7372,0.0227,-0.0076,0.0644,-0.0126,0.0023,-0.0104,0.0,133.42,505.88,-29.98,345.2,-6.74,-1.15,67.84594,20.221375,1692.11,NaN,0.0,10.374194,,26 / 33,8088,2019-09-17 01:41:01:712
0.1956,1.1856,9.9149,0.1945,1.1457,9.7376,-0.0172,-0.0302,0.0645,-0.0115,0.0029,-0.0104,0.0,134.94,503.91,-29.9,345.2,-6.74,-1.15,67.84594,20.221375,1692.11,NaN,0.0,10.374194,,26 / 33,8107,2019-09-17 01:41:01:731
0.2315,1.1234,9.8119,0.1937,1.1433,9.7379,0.0303,-0.0265,-0.0195,-0.0073,0.0109,-0.0099,0.0,133.27,504.96,-30.09,345.18,-6.69,-1.14,67.84594,20.221375,1692.11,NaN,0.0,10.374194,,26 / 33,8127,2019-09-17 01:41:01:751
0.21,1.1473,9.8454,0.1886,1.1416,9.7382,-0.028,-0.0132,0.0575,0.0013,0.021,-0.0083,0.0,135.53,505.89,-30.26,345.18,-6.69,-1.14,67.84594,20.221375,1692.11,NaN,0.0,10.374194,,26 / 33,8148,2019-09-17 01:41:01:772
0.2124,1.1377,9.7999,0.1854,1.1421,9.7382,0.0254,-0.0065,0.0045,0.0055,0.0194,-0.0067,0.0,136.0,505.15,-28.76,344.86,-6.69,-1.11,67.84594,20.221375,1692.11,NaN,0.0,10.374194,,26 / 33,8168,2019-09-17 01:41:01:792
0.2076,1.1066,9.7569,0.1836,1.1404,9.7384,0.0512,-0.0382,-0.0931,-0.0211,0.0087,-0.0062,0.0,134.49,504.67,-29.49,344.86,-6.69,-1.11,67.84594,20.221375,1692.11,NaN,0.0,10.374194,,26 / 33,8187,2019-09-17 01:41:01:811
0.1836,1.1545,10.0513,0.1842,1.136,9.7389,0.041,0.028,0.2034,-0.003,0.0061,-0.011,0.0,133.74,505.44,-28.78,345.07,-6.66,-1.08,67.84594,20.221375,1692.11,NaN,0.0,10.374194,,26 / 33,8208,2019-09-17 01:41:01:832
0.2076,1.1042,9.9173,0.1844,1.1361,9.7389,0.0204,-0.0299,0.0905,0.0108,-0.0056,-0.0078,0.0,134.34,503.75,-29.61,345.07,-6.66,-1.08,67.84594,20.221375,1692.11,NaN,0.0,10.374194,,26 / 33,8228,2019-09-17 01:41:01:852
0.277,1.2479,9.8526,0.1856,1.1374,9.7387,0.0,-0.0061,0.0126,0.0141,-0.004,-0.0115,0.0,134.35,504.54,-28.3,345.07,-6.65,-1.08,67.84594,20.221375,1692.11,NaN,0.0,10.374194,,26 / 33,8248,2019-09-17 01:41:01:872
0.21,1.042,9.7688,0.1853,1.1407,9.7383,0.0386,-0.098,-0.0472,0.013,0.0146,-0.0115,0.0,133.6,504.22,-28.59,345.07,-6.65,-1.08,67.84594,20.221375,1692.11,NaN,0.0,10.374194,,26 / 33,8267,2019-09-17 01:41:01:891
0.2674,1.188,9.788,0.1839,1.1421,9.7382,0.0341,-0.0032,-0.1376,0.0034,0.0173,-0.0152,0.0,134.49,504.68,-29.19,345.07,-6.68,-1.09,67.84594,20.221375,1692.11,NaN,0.0,10.374194,,26 / 33,8289,2019-09-17 01:41:01:913
0.2148,1.0563,9.776,0.1814,1.1409,9.7384,0.0211,-0.0797,0.0095,-0.003,0.0146,-0.0136,0.0,135.09,505.29,-29.65,345.07,-6.68,-1.09,67.84594,20.221375,1692.11,NaN,0.0,10.374194,,26 / 33,8307,2019-09-17 01:41:01:931
0.2243,1.1281,9.8885,0.1804,1.1396,9.7385,0.0305,-0.0258,0.0646,-0.0035,0.0114,-0.0142,0.0,134.34,504.21,-29.62,345.05,-6.68,-1.07,67.84594,20.221375,1692.11,NaN,0.0,10.374194,,26 / 33,8327,2019-09-17 01:41:01:951
0.1836,1.1497,9.7975,0.1787,1.139,9.7386,0.013,0.0034,0.0493,-0.0046,0.0157,-0.0152,0.0,133.74,504.68,-28.76,345.05,-6.68,-1.07,67.84594,20.221375,1692.11,NaN,0.0,10.374194,,26 / 33,8348,2019-09-17 01:41:01:972
0.1932,1.1329,9.7688,0.1737,1.1364,9.739,0.0444,0.0178,0.0525,-0.0067,0.013,-0.0152,0.0,134.03,503.43,-30.78,345.02,-6.66,-1.03,67.84594,20.221375,1692.11,NaN,0.0,10.374194,,26 / 33,8367,2019-09-17 01:41:01:991
0.2028,1.1281,9.776,0.1728,1.1349,9.7392,0.0285,-0.0212,-0.0414,-0.0142,0.0125,-0.0174,0.0,135.39,504.52,-29.63,345.02,-6.66,-1.03,67.84594,20.221375,1692.11,NaN,0.0,10.374194,,26 / 33,8388,2019-09-17 01:41:02:012
0.2291,1.1473,9.7425,0.1732,1.13,9.7398,0.0689,-0.011,-0.094,-0.0232,0.0103,-0.0206,0.0,134.48,503.59,-30.64,345.05,-6.63,-1.02,67.84594,20.221375,1692.11,NaN,0.0,10.374194,,26 / 33,8407,2019-09-17 01:41:02:031
0.2291,1.097,9.788,0.1733,1.127,9.7401,0.0102,-0.0258,-0.0468,-0.0312,0.0045,-0.0222,0.0,134.19,503.91,-29.47,345.05,-6.63,-1.02,67.84594,20.221375,1692.11,NaN,0.0,10.374194,,26 / 33,8429,2019-09-17 01:41:02:053
0.1645,1.0994,9.8813,0.1702,1.1153,9.7415,-0.0203,-0.0322,0.0379,-0.0275,0.0034,-0.0195,0.0,135.4,504.23,-28.88,344.95,-6.56,-1.01,67.84594,20.221375,1692.11,NaN,0.0,10.374194,,26 / 33,8448,2019-09-17 01:41:02:072
0.2076,1.1497,9.8119,0.1677,1.1116,9.742,-0.0561,-0.0332,0.0215,-0.0137,0.0039,-0.0179,0.0,134.18,504.66,-29.93,344.95,-6.56,-1.01,67.84594,20.221375,1692.11,NaN,0.0,10.374194,,26 / 33,8467,2019-09-17 01:41:02:091
0.0352,1.1377,9.922,0.164,1.1081,9.7425,-0.0978,-0.0382,0.1255,-0.0089,0.0082,-0.0019,0.0,134.33,504.97,-30.09,345.08,-6.51,-0.99,67.84594,20.221375,1692.11,NaN,0.0,10.374194,,26 / 33,8488,2019-09-17 01:41:02:112
0.1693,1.0779,9.7018,0.1585,1.1048,9.7429,-0.0372,-0.0159,-0.0259,-0.0254,0.0098,0.0082,0.0,134.19,504.68,-29.19,345.08,-6.51,-0.99,67.84594,20.221375,1692.11,NaN,0.0,10.374194,,26 / 33,8508,2019-09-17 01:41:02:132
0.1286,1.0851,9.7784,0.1567,1.1001,9.7435,0.0065,-0.06,-0.096,-0.0387,0.0109,0.0098,0.0,134.03,504.97,-29.65,345.09,-6.47,-0.93,67.84594,20.221375,1692.11,NaN,0.0,10.374194,,26 / 33,8527,2019-09-17 01:41:02:151
0.0951,1.0755,9.7975,0.1553,1.0934,9.7443,-0.0579,-0.0266,-0.0381,-0.0568,-0.004,0.0162,0.0,135.09,504.98,-29.64,345.09,-6.47,-0.93,67.84594,20.221375,1692.11,NaN,0.0,10.374194,,26 / 33,8547,2019-09-17 01:41:02:171
0.131,0.9941,9.6587,0.158,1.0734,9.7464,-0.0246,-0.0731,-0.0863,-0.0712,-0.0317,0.0215,0.0,134.03,504.2,-30.07,345.06,-6.35,-0.91,67.84594,20.221375,1692.11,NaN,0.0,10.374194,,26 / 33,8567,2019-09-17 01:41:02:191
0.1932,1.0563,9.5773,0.1705,1.0527,9.7485,0.018,-0.0179,-0.2737,-0.1186,-0.0791,0.0071,0.0,134.19,505.13,-29.21,345.06,-6.35,-0.91,67.84594,20.221375,1692.11,NaN,0.0,10.374194,,26 / 33,8587,2019-09-17 01:41:02:211
0.4494,0.9007,9.9101,0.1856,1.0307,9.7506,0.1333,-0.0756,-0.0816,-0.1149,-0.0488,-0.0264,0.0,134.04,504.22,-28.89,345.05,-6.03,-1.09,67.84594,20.221375,1692.11,NaN,0.0,10.374194,,26 / 33,8608,2019-09-17 01:41:02:232
0.6792,0.8361,10.0346,0.1973,1.0041,9.7531,0.5032,-0.2032,0.2967,0.021,0.1696,-0.0701,0.0,135.08,505.27,-30.39,345.05,-6.03,-1.09,67.84594,20.221375,1692.11,NaN,0.0,10.374194,,26 / 33,8628,2019-09-17 01:41:02:252
0.4303,0.8792,9.6204,0.1523,1.0113,9.7532,0.3187,-0.1401,-0.1845,0.0524,0.2404,-0.0941,0.0,135.54,505.44,-29.51,344.87,-5.88,-1.16,67.84594,20.221375,1692.11,NaN,0.0,10.374194,,26 / 33,8648,2019-09-17 01:41:02:272
0.1453,0.9198,9.5438,0.1191,1.0159,9.7532,0.0672,-0.1099,-0.2936,0.0188,0.2095,-0.1058,0.0,135.09,504.99,-29.35,344.87,-5.88,-1.16,67.84594,20.221375,1692.11,NaN,0.0,10.374194,,26 / 33,8668,2019-09-17 01:41:02:292
-0.0079,0.9845,9.6228,0.0813,1.0124,9.7539,-0.097,-0.0475,-0.1946,-0.0318,0.1206,-0.0935,0.0,136.76,504.39,-29.17,344.77,-5.94,-0.55,67.84594,20.221375,1692.11,NaN,0.0,10.374194,,26 / 33,8687,2019-09-17 01:41:02:311
-0.0893,1.0252,9.7545,0.0613,1.0073,9.7546,-0.0948,0.0055,-0.1109,-0.0323,0.1355,-0.0722,0.0,136.0,504.38,-29.47,344.77,-5.94,-0.55,67.84594,20.221375,1692.11,NaN,0.0,10.374194,,26 / 33,8707,2019-09-17 01:41:02:331
-0.1851,1.0156,9.8766,0.0212,1.0043,9.7551,-0.2052,0.0073,0.0274,-0.0014,0.1648,-0.0499,0.0,135.4,504.53,-28.89,345.03,-5.88,-0.27,67.84594,20.221375,1692.11,NaN,0.0,10.374194,,26 / 33,8728,2019-09-17 01:41:02:352
-0.2282,1.0851,9.6635,-0.005,1.0053,9.755,-0.2051,0.0674,-0.1482,-0.0078,0.1669,-0.0317,0.0,135.54,504.67,-29.93,345.03,-5.88,-0.27,67.84594,20.221375,1692.11,NaN,0.0,10.374194,,26 / 33,8750,2019-09-17 01:41:02:374
-0.2234,1.1449,9.6946,-0.0306,1.0037,9.7551,-0.1147,0.0942,-0.1502,-0.0302,0.1818,-0.0243,0.0,136.74,505.14,-29.93,344.84,-5.87,0.18,67.84594,20.221375,1692.11,NaN,0.0,10.374194,,26 / 33,8768,2019-09-17 01:41:02:392
-0.2066,1.03,9.8239,-0.085,0.9872,9.7565,-0.1078,0.0295,0.0344,-0.0856,0.1632,-0.0184,0.0,137.06,504.39,-29.46,344.84,-5.87,0.18,67.84594,20.221375,1692.11,NaN,0.0,10.374194,,26 / 33,8787,2019-09-17 01:41:02:411
-0.2952,1.0707,10.3769,-0.1038,0.9804,9.757,-0.1583,0.108,0.3576,-0.0296,0.2245,-0.0184,0.0,136.75,506.23,-28.79,344.9,-5.74,0.61,67.84594,20.221375,1692.11,NaN,0.0,10.374194,,26 / 33,8808,2019-09-17 01:41:02:432
-0.2856,1.0874,10.3243,-0.151,0.9788,9.7565,-0.1227,0.0651,0.5243,0.0572,0.2489,-0.0083,0.0,136.3,505.14,-29.49,344.9,-5.74,0.61,67.84594,20.221375,1692.11,NaN,0.0,10.374194,,26 / 33,8828,2019-09-17 01:41:02:452
-0.3622,1.1018,9.9101,-0.221,0.9948,9.7536,-0.1131,0.1038,0.1061,0.0492,0.2074,-0.0126,0.0,137.51,503.63,-29.44,344.77,-5.77,1.1,67.84594,20.221375,1692.11,NaN,0.0,10.374194,,26 / 33,8848,2019-09-17 01:41:02:472
-0.3981,1.1018,9.9244,-0.2478,0.9994,9.7524,-0.1149,0.1015,0.1056,0.0242,0.1696,-0.0083,0.0,137.97,505.01,-28.89,344.77,-5.77,1.1,67.84594,20.221375,1692.11,NaN,0.0,10.374194,,26 / 33,8868,2019-09-17 01:41:02:492
-0.2713,1.0827,9.9939,-0.2778,1.0029,9.7513,-0.0223,0.0728,0.1823,0.0151,0.1094,-0.004,0.0,136.3,504.38,-29.47,345.01,-5.86,1.57,67.84594,20.221375,1692.11,NaN,0.0,10.374194,,26 / 33,8889,2019-09-17 01:41:02:513
-0.276,1.0539,9.8358,-0.2986,1.0076,9.7502,0.0214,0.0357,0.025,0.0423,0.1856,-0.0088,0.0,137.66,504.24,-29.31,345.01,-5.86,1.57,67.84594,20.221375,1692.11,NaN,0.0,10.374194,,26 / 33,8907,2019-09-17 01:41:02:531
-0.3407,1.0468,9.7928,-0.3292,1.0145,9.7485,0.0989,0.0383,-0.1107,0.0625,0.2926,-0.0062,0.0,138.73,504.57,-28.28,344.74,-5.94,1.93,67.84594,20.221375,1692.11,NaN,0.0,10.374194,,26 / 33,8928,2019-09-17 01:41:02:552
-0.4819,1.03,9.8239,-0.415,1.0357,9.743,-0.0529,-7.0E-4,-0.0224,0.0854,0.3187,0.0034,0.0,139.34,505.19,-27.71,344.74,-5.94,1.93,67.84594,20.221375,1692.11,NaN,0.0,10.374194,,26 / 33,8952,2019-09-17 01:41:02:576
-0.5346,0.9845,9.7257,-0.4465,1.0432,9.7408,-0.0667,-0.0728,-0.0845,0.0822,0.291,-0.0024,0.0,137.5,504.38,-29.91,344.88,-6.11,2.62,67.84594,20.221375,1692.11,NaN,0.0,10.374194,,26 / 33,8968,2019-09-17 01:41:02:592
-0.6376,1.0491,9.4528,-0.5235,1.0634,9.7348,-0.0994,0.0042,-0.3411,0.0641,0.2175,-0.0046,0.0,137.06,504.39,-29.46,344.88,-6.11,2.62,67.84594,20.221375,1692.11,NaN,0.0,10.374194,,26 / 33,8988,2019-09-17 01:41:02:612
-0.6328,1.042,9.5342,-0.5446,1.0655,9.7334,-0.0914,-0.0038,-0.3253,-0.0243,0.0828,0.0061,0.0,137.08,503.34,-27.95,344.97,-6.23,3.08,67.84594,20.221375,1692.11,NaN,0.0,10.374194,,26 / 33,9008,2019-09-17 01:41:02:632
-0.5729,1.018,9.6419,-0.5545,1.0608,9.7333,-0.0025,-0.0074,-0.2155,-0.0632,0.0386,0.0023,0.0,138.27,503.94,-29.15,344.97,-6.23,3.08,67.84594,20.221375,1692.11,NaN,0.0,10.374194,,26 / 33,9028,2019-09-17 01:41:02:652
-0.4843,1.0348,10.013,-0.5713,1.0438,9.7342,0.0875,-0.0082,0.2227,-0.0504,0.054,-3.0E-4,0.0,138.27,503.94,-29.15,344.92,-6.16,3.29,67.84594,20.221375,1692.11,NaN,0.0,10.374194,,26 / 33,9048,2019-09-17 01:41:02:672
-0.4867,1.0611,9.8957,-0.5836,1.0434,9.7335,0.1227,0.0664,0.2393,0.0061,0.0945,-0.02,0.0,137.23,502.72,-28.52,344.92,-6.16,3.29,67.84594,20.221375,1692.11,NaN,0.0,10.374194,,26 / 33,9068,2019-09-17 01:41:02:692
-0.5059,1.0515,9.7832,-0.5962,1.042,9.7329,0.0373,-0.0821,0.066,-0.0046,0.0764,-0.0328,0.0,139.49,504.27,-28.27,344.81,-6.11,3.43,67.84594,20.221375,1692.11,NaN,0.0,10.374194,,26 / 33,9087,2019-09-17 01:41:02:711
-0.6376,1.0659,9.9101,-0.6103,1.0413,9.7321,-0.0333,0.0082,0.0982,-0.0046,0.0647,-0.0371,0.0,139.46,505.32,-29.63,344.81,-6.11,3.43,67.84594,20.221375,1692.11,NaN,0.0,10.374194,,26 / 33,9107,2019-09-17 01:41:02:731
-0.81,1.0468,10.0011,-0.6336,1.0472,9.73,-0.16,0.0597,0.2395,0.0343,0.0593,-0.0339,0.0,139.96,503.06,-27.49,344.69,-6.1,3.66,67.84594,20.221375,1692.11,NaN,0.0,10.374194,,26 / 33,9128,2019-09-17 01:41:02:752
-0.7573,1.1186,9.879,-0.6408,1.0553,9.7286,-0.1321,0.0405,0.0709,0.0609,0.022,-0.0227,0.0,139.02,504.41,-29.16,344.69,-6.1,3.66,67.84594,20.221375,1692.11,NaN,0.0,10.374194,,26 / 33,9147,2019-09-17 01:41:02:771
-0.6567,1.097,9.618,-0.6458,1.0647,9.7273,-0.108,-0.0061,-0.087,0.0556,0.0151,-0.0126,0.0,139.49,503.81,-28.55,344.85,-6.18,3.77,67.84594,20.221375,1692.11,NaN,0.0,10.374194,,26 / 33,9168,2019-09-17 01:41:02:792
-0.6855,1.1329,9.5198,-0.6533,1.0795,9.7251,-0.0461,0.04,-0.2626,0.0396,0.0151,-0.0184,0.0,139.78,504.72,-28.72,344.85,-6.18,3.77,67.84594,20.221375,1692.11,NaN,0.0,10.374194,,26 / 33,9187,2019-09-17 01:41:02:811
-0.6855,1.1473,9.5462,-0.6594,1.0832,9.7243,-0.0595,0.0694,-0.2172,0.0029,0.0391,-0.0051,0.0,139.48,504.26,-28.86,344.85,-6.32,3.84,67.84594,20.221375,1692.11,NaN,0.0,10.374194,,26 / 33,9208,2019-09-17 01:41:02:832
-0.6352,1.1186,9.8215,-0.6713,1.0859,9.7232,0.0061,0.0466,0.0074,0.0066,0.0609,0.0103,0.0,139.79,504.73,-27.98,344.85,-6.32,3.84,67.84594,20.221375,1692.11,NaN,0.0,10.374194,,26 / 33,9228,2019-09-17 01:41:02:852
-0.707,1.0372,9.8071,-0.6809,1.0881,9.7223,-0.0619,-0.0684,0.0793,0.0279,0.0711,-0.0088,0.0,140.23,504.27,-28.85,344.76,-6.36,3.95,67.84594,20.221375,1692.11,NaN,0.0,10.374194,,26 / 33,9248,2019-09-17 01:41:02:872
-0.7238,1.0994,9.8335,-0.6909,1.091,9.7213,-0.0086,0.0255,0.0826,0.021,0.0561,-0.012,0.0,140.25,503.82,-27.8,344.76,-6.36,3.95,67.84594,20.221375,1692.11,NaN,0.0,10.374194,,26 / 33,9268,2019-09-17 01:41:02:892
-0.7214,1.1234,9.8047,-0.7057,1.0958,9.7196,-0.0571,0.0397,0.0206,0.0077,0.0322,-0.0152,0.0,139.8,503.97,-27.66,344.76,-6.4,4.11,67.84594,20.221375,1692.11,NaN,0.0,10.374194,,26 / 33,9287,2019-09-17 01:41:02:911
-0.7238,1.1138,9.8646,-0.7104,1.098,9.7191,-0.0151,0.0097,0.0792,0.0119,0.021,-0.0078,0.0,138.74,502.74,-28.22,344.76,-6.4,4.11,67.84594,20.221375,1692.11,NaN,0.0,10.374194,,26 / 33,9308,2019-09-17 01:41:02:932
-0.695,1.0922,9.922,-0.7123,1.0998,9.7187,0.0121,-0.0222,0.1056,0.0332,0.029,-0.02,0.0,140.09,504.74,-27.98,344.79,-6.44,4.19,67.84594,20.221375,1692.11,NaN,0.0,10.374194,,26 / 33,9327,2019-09-17 01:41:02:951
-0.7309,1.1808,9.6635,-0.7215,1.1129,9.7165,-0.0454,0.0336,-0.0065,0.0433,0.0418,-0.0259,0.0,139.05,502.6,-27.18,344.79,-6.44,4.19,67.84594,20.221375,1692.11,NaN,0.0,10.374194,,26 / 33,9347,2019-09-17 01:41:02:971
-0.7884,1.2072,9.7497,-0.7263,1.1193,9.7154,-0.0382,0.0835,-0.0637,0.0258,0.0215,-0.0206,0.0,140.54,504.43,-28.41,344.66,-6.52,4.25,67.84594,20.221375,1692.11,NaN,0.0,10.374194,,26 / 33,9368,2019-09-17 01:41:02:992
-0.7381,1.1545,10.037,-0.7302,1.1226,9.7148,-0.0318,0.0262,0.1083,0.0178,0.0135,-0.0131,0.0,139.5,502.29,-27.76,344.66,-6.52,4.25,67.84594,20.221375,1692.11,NaN,0.0,10.374194,,26 / 33,9387,2019-09-17 01:41:03:011
-0.7525,1.0994,10.0178,-0.7343,1.1337,9.7132,-0.003,0.0126,0.1717,0.0652,0.0135,-0.0211,0.0,139.04,503.35,-28.39,344.85,-6.6,4.31,67.84594,20.221375,1692.11,NaN,0.0,10.374194,,26 / 33,9407,2019-09-17 01:41:03:031
-0.7669,1.0994,9.843,-0.7375,1.143,9.7119,-0.0283,-0.0209,0.0123,0.0705,0.0151,-0.0243,0.0,140.08,503.34,-29.41,344.85,-6.6,4.31,67.84594,20.221375,1692.11,NaN,0.0,10.374194,,26 / 33,9429,2019-09-17 01:41:03:053
-0.7836,1.1593,9.7521,-0.743,1.1596,9.7095,-0.0227,-0.0366,-0.0315,0.0774,0.0205,-0.0168,0.0,140.09,504.43,-27.97,344.77,-6.75,4.36,67.84594,20.221375,1692.11,NaN,0.0,10.374194,,25 / 30,9447,2019-09-17 01:41:03:071
-0.81,1.1305,9.7018,-0.7465,1.1696,9.708,-0.0684,-0.0344,-0.0938,-0.2469,-0.4062,-0.0056,0.0,139.95,503.05,-28.22,344.77,-6.75,4.36,67.84594,20.221375,1692.11,NaN,0.0,10.374194,,25 / 30,9468,2019-09-17 01:41:03:092
-0.8004,1.1401,9.436,-0.7084,1.136,9.7148,-0.3703,0.1343,0.0527,-0.2842,-0.2001,0.0284,0.0,139.48,503.8,-28.84,344.88,-6.65,4.17,67.84594,20.221375,1692.11,NaN,0.0,10.374194,,25 / 30,9488,2019-09-17 01:41:03:112
-0.4005,0.6182,10.6355,-0.6673,1.0724,9.725,0.1369,-0.1122,0.8688,-0.1825,-0.1202,0.0157,0.0,140.55,503.66,-28.39,344.88,-6.65,4.17,67.84594,20.221375,1692.11,NaN,0.0,10.374194,,25 / 30,9508,2019-09-17 01:41:03:132
-0.9297,1.018,10.693,-0.6982,1.0874,9.7211,-0.1082,-0.1038,1.225,0.1989,0.3027,-0.0051,0.0,140.23,504.56,-29.3,344.78,-6.28,3.93,67.84594,20.221375,1692.11,NaN,0.0,10.374194,,25 / 30,9527,2019-09-17 01:41:03:151
-0.9249,1.0252,9.5007,-0.7449,1.1262,9.7132,-0.1278,-0.0763,0.3689,0.2479,0.2378,0.0034,0.0,140.23,503.8,-29.28,344.78,-6.28,3.93,67.84594,20.221375,1692.11,NaN,0.0,10.374194,,25 / 30,9547,2019-09-17 01:41:03:171
-1.0997,1.2598,9.63,-0.772,1.1609,9.707,-0.3329,0.035,-0.2942,-0.0211,-0.1122,7.0E-4,0.0,140.84,503.66,-29.12,344.7,-6.77,4.55,67.84594,20.221375,1692.11,NaN,0.0,10.374194,,25 / 30,9568,2019-09-17 01:41:03:192
-0.8578,1.2886,10.0609,-0.7488,1.1568,9.7094,-0.1767,0.2785,0.4486,-0.0206,-0.1734,0.0109,0.0,139.81,503.37,-27.2,344.7,-6.77,4.55,67.84594,20.221375,1692.11,NaN,0.0,10.374194,,25 / 30,9588,2019-09-17 01:41:03:212